subjNum;subjStartDate;subjStartTime;trialIndex;exptId;choicePos;vidPlayCounts;rt;exptVer;options;choice
1;2024-10-08;23:16:07;0;29;right;"{""vid1"":1,""vid2"":1,""vid3"":1}";21.897;1;['5570_poke', '4806_flirt with', '5901_huddle with'];5901_huddle with
1;2024-10-08;23:16:07;1;34;right;"{""vid1"":2,""vid2"":2,""vid3"":2}";39.827;1;['1051_herd', '1121_scratch', '5528_hug'];5528_hug
1;2024-10-08;23:16:07;2;19;middle;"{""vid1"":3,""vid2"":3,""vid3"":3}";58.96;1;['6026_fight', '5528_hug', '4926_lead'];5528_hug
1;2024-10-08;23:16:07;3;39;middle;"{""vid1"":4,""vid2"":4,""vid3"":4}";82.882;1;['5570_poke', '5790_escape', '6026_fight'];5790_escape
1;2024-10-08;23:16:07;4;31;right;"{""vid1"":5,""vid2"":5,""vid3"":5}";106.792;1;['6026_fight', '1167_kiss', '5876_creep up on'];5876_creep up on
1;2024-10-08;23:16:07;5;1;right;"{""vid1"":6,""vid2"":6,""vid3"":6}";118.899;1;['5528_hug', '6058_leave', '5905_encircle'];5905_encircle
1;2024-10-08;23:16:07;6;30;left;"{""vid1"":14,""vid2"":7,""vid3"":7}";148.828;1;['6013_talk to', '5876_creep up on', '5096_approach'];6013_talk to
1;2024-10-08;23:16:07;7;0;middle;"{""vid1"":8,""vid2"":8,""vid3"":8}";168.707;1;['5570_poke', '6013_talk to', '5876_creep up on'];6013_talk to
1;2024-10-08;23:16:07;8;43;right;"{""vid1"":9,""vid2"":9,""vid3"":9}";192.722;1;['4806_flirt with', '5901_huddle with', '5866_follow'];5866_follow
1;2024-10-08;23:16:07;9;18;middle;"{""vid1"":10,""vid2"":10,""vid3"":10}";221.108;1;['4789_bother', '4806_flirt with', '6058_leave'];4806_flirt with
1;2024-10-08;23:16:07;10;26;left;"{""vid1"":22,""vid2"":11,""vid3"":11}";247.923;1;['5471_ignore', '1104_tickle', '1121_scratch'];5471_ignore
3;2024-10-08;23:19:39;0;1;left;"{""vid1"":2,""vid2"":1,""vid3"":1}";65.302;3;['4793_avoid', '6026_fight', '1104_tickle'];4793_avoid
1;2024-10-08;23:16:07;11;27;right;"{""vid1"":12,""vid2"":12,""vid3"":12}";261.969;1;['4788_capture', '5568_push', '4926_lead'];4926_lead
1;2024-10-08;23:16:07;12;9;left;"{""vid1"":13,""vid2"":13,""vid3"":13}";287.032;1;['4806_flirt with', '4926_lead', '5876_creep up on'];4806_flirt with
1;2024-10-08;23:16:07;13;22;right;"{""vid1"":14,""vid2"":14,""vid3"":14}";306.1;1;['6058_leave', '5096_approach', '6013_talk to'];6013_talk to
1;2024-10-08;23:16:07;14;11;right;"{""vid1"":15,""vid2"":15,""vid3"":15}";328.819;1;['1104_tickle', '5568_push', '4793_avoid'];4793_avoid
1;2024-10-08;23:16:07;15;41;right;"{""vid1"":16,""vid2"":16,""vid3"":16}";359.06;1;['6172_hit', '4789_bother', '1167_kiss'];1167_kiss
3;2024-10-08;23:19:39;1;17;right;"{""vid1"":6,""vid2"":6,""vid3"":8}";182.387;3;['1051_herd', '6026_fight', '6239_pull'];6239_pull
1;2024-10-08;23:16:07;16;6;middle;"{""vid1"":34,""vid2"":17,""vid3"":17}";391.407;1;['4806_flirt with', '5905_encircle', '5570_poke'];5905_encircle
1;2024-10-08;23:16:07;17;12;middle;"{""vid1"":18,""vid2"":18,""vid3"":18}";412.092;1;['6239_pull', '5788_examine', '1167_kiss'];5788_examine
1;2024-10-08;23:16:07;18;33;middle;"{""vid1"":19,""vid2"":19,""vid3"":19}";428.816;1;['6172_hit', '5528_hug', '4788_capture'];5528_hug
3;2024-10-08;23:19:39;2;35;left;"{""vid1"":9,""vid2"":6,""vid3"":6}";248.337;3;['5096_approach', '4806_flirt with', '6026_fight'];5096_approach
1;2024-10-08;23:16:07;19;32;left;"{""vid1"":20,""vid2"":20,""vid3"":20}";445.735;1;['5905_encircle', '5568_push', '1104_tickle'];5905_encircle
1;2024-10-08;23:16:07;20;16;middle;"{""vid1"":21,""vid2"":21,""vid3"":21}";459.604;1;['5096_approach', '6239_pull', '4788_capture'];6239_pull
3;2024-10-08;23:19:39;3;12;right;"{""vid1"":4,""vid2"":4,""vid3"":4}";284.405;3;['5788_examine', '6300_accompany', '6172_hit'];6172_hit
1;2024-10-08;23:16:07;21;20;middle;"{""vid1"":44,""vid2"":22,""vid3"":22}";484.101;1;['1104_tickle', '6058_leave', '6013_talk to'];6058_leave
1;2024-10-08;23:16:07;22;14;left;"{""vid1"":23,""vid2"":23,""vid3"":23}";502.189;1;['5905_encircle', '5876_creep up on', '4788_capture'];5905_encircle
1;2024-10-08;23:16:07;23;36;middle;"{""vid1"":24,""vid2"":24,""vid3"":24}";523.451;1;['4793_avoid', '5528_hug', '4926_lead'];5528_hug
1;2024-10-08;23:16:07;24;17;middle;"{""vid1"":25,""vid2"":25,""vid3"":25}";547.11;1;['1051_herd', '4926_lead', '1104_tickle'];4926_lead
3;2024-10-08;23:19:39;4;29;left;"{""vid1"":20,""vid2"":20,""vid3"":10}";368.24;3;['5901_huddle with', '4861_throw', '1104_tickle'];5901_huddle with
1;2024-10-08;23:16:07;25;24;middle;"{""vid1"":26,""vid2"":26,""vid3"":26}";569.113;1;['5096_approach', '5471_ignore', '5876_creep up on'];5471_ignore
4;2024-10-08;23:25:15;0;5;middle;"{""vid1"":1,""vid2"":1,""vid3"":1}";22.584;4;['6300_accompany', '5901_huddle with', '5568_push'];5901_huddle with
1;2024-10-08;23:16:07;26;38;middle;"{""vid1"":27,""vid2"":27,""vid3"":27}";594.279;1;['4861_throw', '5790_escape', '6013_talk to'];5790_escape
4;2024-10-08;23:25:15;1;30;middle;"{""vid1"":2,""vid2"":2,""vid3"":2}";47.926;4;['4793_avoid', '6026_fight', '6058_leave'];6026_fight
1;2024-10-08;23:16:07;27;3;left;"{""vid1"":28,""vid2"":28,""vid3"":28}";624.591;1;['6013_talk to', '4789_bother', '1051_herd'];6013_talk to
3;2024-10-08;23:19:39;5;30;left;"{""vid1"":18,""vid2"":12,""vid3"":12}";436.239;3;['6239_pull', '6172_hit', '6013_talk to'];6239_pull
1;2024-10-08;23:16:07;28;42;left;"{""vid1"":29,""vid2"":29,""vid3"":29}";646.727;1;['6300_accompany', '1121_scratch', '5901_huddle with'];6300_accompany
4;2024-10-08;23:25:15;2;18;middle;"{""vid1"":3,""vid2"":3,""vid3"":3}";81.736;4;['4926_lead', '4793_avoid', '4806_flirt with'];4793_avoid
3;2024-10-08;23:19:39;6;24;right;"{""vid1"":7,""vid2"":14,""vid3"":14}";464.837;3;['5905_encircle', '4861_throw', '5901_huddle with'];5901_huddle with
1;2024-10-08;23:16:07;29;10;middle;"{""vid1"":30,""vid2"":30,""vid3"":30}";673.8;1;['6013_talk to', '6172_hit', '5866_follow'];6172_hit
4;2024-10-08;23:25:15;3;7;middle;"{""vid1"":8,""vid2"":8,""vid3"":4}";108.335;4;['5096_approach', '6058_leave', '5568_push'];6058_leave
3;2024-10-08;23:19:39;7;34;middle;"{""vid1"":16,""vid2"":8,""vid3"":8}";490.172;3;['5568_push', '1121_scratch', '1167_kiss'];1121_scratch
1;2024-10-08;23:16:07;30;15;middle;"{""vid1"":31,""vid2"":31,""vid3"":31}";692.304;1;['5096_approach', '5471_ignore', '6058_leave'];5471_ignore
4;2024-10-08;23:25:15;4;35;middle;"{""vid1"":5,""vid2"":5,""vid3"":5}";129.005;4;['4788_capture', '6300_accompany', '1104_tickle'];6300_accompany
4;2024-10-08;23:25:15;5;44;middle;"{""vid1"":6,""vid2"":6,""vid3"":6}";149.825;4;['1104_tickle', '5901_huddle with', '5528_hug'];5901_huddle with
3;2024-10-08;23:19:39;8;9;middle;"{""vid1"":18,""vid2"":18,""vid3"":18}";528.073;3;['1121_scratch', '5471_ignore', '6058_leave'];5471_ignore
1;2024-10-08;23:16:07;31;44;left;"{""vid1"":32,""vid2"":32,""vid3"":32}";725.665;1;['4789_bother', '6300_accompany', '1051_herd'];4789_bother
1;2024-10-08;23:16:07;32;23;right;"{""vid1"":33,""vid2"":33,""vid3"":33}";741.407;1;['5866_follow', '4788_capture', '1167_kiss'];1167_kiss
3;2024-10-08;23:19:39;9;2;left;"{""vid1"":10,""vid2"":10,""vid3"":10}";561.189;3;['5790_escape', '6300_accompany', '5788_examine'];5790_escape
4;2024-10-08;23:25:15;6;0;middle;"{""vid1"":14,""vid2"":7,""vid3"":7}";187.095;4;['4789_bother', '5790_escape', '4788_capture'];5790_escape
1;2024-10-08;23:16:07;33;2;middle;"{""vid1"":34,""vid2"":34,""vid3"":34}";766.775;1;['5788_examine', '5570_poke', '6300_accompany'];5570_poke
3;2024-10-08;23:19:39;10;33;right;"{""vid1"":22,""vid2"":22,""vid3"":11}";577.406;3;['4861_throw', '4788_capture', '5528_hug'];5528_hug
4;2024-10-08;23:25:15;7;27;left;"{""vid1"":8,""vid2"":8,""vid3"":8}";216.218;4;['6013_talk to', '6172_hit', '1051_herd'];6013_talk to
1;2024-10-08;23:16:07;34;28;left;"{""vid1"":35,""vid2"":35,""vid3"":35}";783.872;1;['4861_throw', '6058_leave', '5790_escape'];4861_throw
1;2024-10-08;23:16:07;35;4;middle;"{""vid1"":36,""vid2"":36,""vid3"":36}";801.384;1;['6239_pull', '5788_examine', '5568_push'];5788_examine
3;2024-10-08;23:19:39;11;38;left;"{""vid1"":48,""vid2"":36,""vid3"":24}";635.091;3;['5528_hug', '6172_hit', '6013_talk to'];5528_hug
1;2024-10-08;23:16:07;36;40;left;"{""vid1"":74,""vid2"":37,""vid3"":37}";828.776;1;['6026_fight', '5568_push', '5866_follow'];6026_fight
4;2024-10-08;23:25:15;8;6;left;"{""vid1"":18,""vid2"":9,""vid3"":9}";277.681;4;['6239_pull', '1104_tickle', '5570_poke'];6239_pull
1;2024-10-08;23:16:07;37;35;left;"{""vid1"":38,""vid2"":38,""vid3"":38}";851.954;1;['6172_hit', '1104_tickle', '5570_poke'];6172_hit
1;2024-10-08;23:16:07;38;13;middle;"{""vid1"":78,""vid2"":39,""vid3"":39}";881.349;1;['1167_kiss', '5471_ignore', '5096_approach'];5471_ignore
3;2024-10-08;23:19:39;12;31;right;"{""vid1"":26,""vid2"":39,""vid3"":39}";691.558;3;['5876_creep up on', '4806_flirt with', '5528_hug'];5528_hug
1;2024-10-08;23:16:07;39;7;right;"{""vid1"":80,""vid2"":40,""vid3"":40}";900.54;1;['5570_poke', '6026_fight', '4788_capture'];4788_capture
3;2024-10-08;23:19:39;13;22;middle;"{""vid1"":14,""vid2"":28,""vid3"":14}";717.692;3;['6058_leave', '5471_ignore', '1104_tickle'];5471_ignore
1;2024-10-08;23:16:07;40;25;left;"{""vid1"":41,""vid2"":41,""vid3"":41}";918.404;1;['6300_accompany', '6058_leave', '4861_throw'];6300_accompany
1;2024-10-08;23:16:07;41;21;middle;"{""vid1"":42,""vid2"":42,""vid3"":42}";934.059;1;['4861_throw', '5866_follow', '1121_scratch'];5866_follow
3;2024-10-08;23:19:39;14;13;left;"{""vid1"":30,""vid2"":15,""vid3"":15}";750.69;3;['5096_approach', '4793_avoid', '5905_encircle'];5096_approach
1;2024-10-08;23:16:07;42;5;left;"{""vid1"":43,""vid2"":43,""vid3"":43}";964.775;1;['6172_hit', '5866_follow', '5788_examine'];6172_hit
4;2024-10-08;23:25:15;9;1;left;"{""vid1"":20,""vid2"":10,""vid3"":10}";407.294;4;['6239_pull', '5876_creep up on', '5901_huddle with'];6239_pull
3;2024-10-08;23:19:39;15;44;right;"{""vid1"":32,""vid2"":32,""vid3"":16}";794.261;3;['6026_fight', '1167_kiss', '5096_approach'];5096_approach
1;2024-10-08;23:16:07;43;37;middle;"{""vid1"":44,""vid2"":44,""vid3"":44}";992.563;1;['4806_flirt with', '5471_ignore', '1051_herd'];5471_ignore
4;2024-10-08;23:25:15;10;24;right;"{""vid1"":11,""vid2"":11,""vid3"":22}";441.789;4;['6172_hit', '1104_tickle', '5876_creep up on'];5876_creep up on
3;2024-10-08;23:19:39;16;20;left;"{""vid1"":34,""vid2"":17,""vid3"":17}";839.027;3;['5790_escape', '4789_bother', '5788_examine'];5790_escape
1;2024-10-08;23:16:07;44;8;right;"{""vid1"":90,""vid2"":90,""vid3"":45}";1030.888;1;['1104_tickle', '5790_escape', '1121_scratch'];1121_scratch
4;2024-10-08;23:25:15;11;15;right;"{""vid1"":12,""vid2"":12,""vid3"":12}";463.319;4;['6300_accompany', '5876_creep up on', '6239_pull'];6239_pull
3;2024-10-08;23:19:39;17;6;middle;"{""vid1"":18,""vid2"":36,""vid3"":18}";866.127;3;['5790_escape', '4861_throw', '1121_scratch'];4861_throw
4;2024-10-08;23:25:15;12;2;right;"{""vid1"":26,""vid2"":13,""vid3"":13}";520.323;4;['5901_huddle with', '5905_encircle', '4793_avoid'];4793_avoid
3;2024-10-08;23:19:39;18;3;left;"{""vid1"":38,""vid2"":57,""vid3"":57}";936.743;3;['5570_poke', '5471_ignore', '1051_herd'];5570_poke
4;2024-10-08;23:25:15;13;13;middle;"{""vid1"":14,""vid2"":14,""vid3"":14}";583.244;4;['1104_tickle', '5866_follow', '1121_scratch'];5866_follow
3;2024-10-08;23:19:39;19;37;middle;"{""vid1"":40,""vid2"":40,""vid3"":20}";963.011;3;['5866_follow', '5528_hug', '5471_ignore'];5528_hug
4;2024-10-08;23:25:15;14;41;right;"{""vid1"":15,""vid2"":15,""vid3"":15}";611.919;4;['6013_talk to', '1167_kiss', '6300_accompany'];6300_accompany
4;2024-10-08;23:25:15;15;11;middle;"{""vid1"":16,""vid2"":16,""vid3"":16}";633.377;4;['1167_kiss', '6239_pull', '6172_hit'];6239_pull
3;2024-10-08;23:19:39;20;21;middle;"{""vid1"":42,""vid2"":42,""vid3"":42}";1038.827;3;['5570_poke', '4793_avoid', '5568_push'];4793_avoid
4;2024-10-08;23:25:15;16;22;middle;"{""vid1"":51,""vid2"":34,""vid3"":17}";677.145;4;['4861_throw', '1167_kiss', '6058_leave'];1167_kiss
3;2024-10-08;23:19:39;21;5;middle;"{""vid1"":22,""vid2"":22,""vid3"":22}";1072.029;3;['6172_hit', '5471_ignore', '4789_bother'];5471_ignore
4;2024-10-08;23:25:15;17;23;right;"{""vid1"":18,""vid2"":18,""vid3"":18}";702.549;4;['4788_capture', '5096_approach', '5790_escape'];5790_escape
3;2024-10-08;23:19:39;22;14;left;"{""vid1"":46,""vid2"":46,""vid3"":23}";1115.596;3;['6026_fight', '4926_lead', '6013_talk to'];6026_fight
3;2024-10-08;23:19:39;23;15;left;"{""vid1"":48,""vid2"":24,""vid3"":24}";1146.927;3;['6013_talk to', '5471_ignore', '1121_scratch'];6013_talk to
3;2024-10-08;23:19:39;24;41;left;"{""vid1"":25,""vid2"":25,""vid3"":25}";1174.979;3;['6239_pull', '5788_examine', '4789_bother'];6239_pull
4;2024-10-08;23:25:15;18;26;right;"{""vid1"":38,""vid2"":19,""vid3"":19}";819.747;4;['6300_accompany', '5568_push', '5790_escape'];5790_escape
3;2024-10-08;23:19:39;25;28;middle;"{""vid1"":52,""vid2"":26,""vid3"":26}";1214.795;3;['1051_herd', '5788_examine', '1104_tickle'];5788_examine
4;2024-10-08;23:25:15;19;20;right;"{""vid1"":40,""vid2"":20,""vid3"":40}";875.801;4;['4806_flirt with', '1121_scratch', '6013_talk to'];6013_talk to
3;2024-10-08;23:19:39;26;8;middle;"{""vid1"":54,""vid2"":81,""vid3"":54}";1271.861;3;['5568_push', '5096_approach', '4789_bother'];5096_approach
4;2024-10-08;23:25:15;20;14;middle;"{""vid1"":21,""vid2"":21,""vid3"":21}";909.022;4;['6058_leave', '1104_tickle', '6300_accompany'];1104_tickle
4;2024-10-08;23:25:15;21;33;middle;"{""vid1"":22,""vid2"":22,""vid3"":22}";956.501;4;['6013_talk to', '4793_avoid', '1167_kiss'];4793_avoid
4;2024-10-08;23:25:15;22;28;right;"{""vid1"":46,""vid2"":46,""vid3"":23}";981.412;4;['6239_pull', '4788_capture', '6300_accompany'];6300_accompany
3;2024-10-08;23:19:39;27;0;middle;"{""vid1"":84,""vid2"":56,""vid3"":56}";1371.064;3;['4793_avoid', '6239_pull', '4806_flirt with'];6239_pull
3;2024-10-08;23:19:39;28;10;middle;"{""vid1"":58,""vid2"":58,""vid3"":29}";1445.099;3;['1051_herd', '5096_approach', '1104_tickle'];5096_approach
3;2024-10-08;23:19:39;29;11;left;"{""vid1"":30,""vid2"":60,""vid3"":60}";1516.2;3;['6013_talk to', '6239_pull', '5096_approach'];6013_talk to
3;2024-10-08;23:19:39;30;16;right;"{""vid1"":93,""vid2"":155,""vid3"":62}";1571.965;3;['5790_escape', '5528_hug', '5905_encircle'];5905_encircle
3;2024-10-08;23:19:39;31;26;middle;"{""vid1"":64,""vid2"":32,""vid3"":64}";1600.233;3;['6058_leave', '4789_bother', '6239_pull'];4789_bother
3;2024-10-08;23:19:39;32;7;left;"{""vid1"":33,""vid2"":33,""vid3"":33}";1629.485;3;['1167_kiss', '5570_poke', '6300_accompany'];1167_kiss
3;2024-10-08;23:19:39;33;4;middle;"{""vid1"":68,""vid2"":68,""vid3"":34}";1661.149;3;['5570_poke', '5901_huddle with', '1104_tickle'];5901_huddle with
3;2024-10-08;23:19:39;34;23;middle;"{""vid1"":35,""vid2"":35,""vid3"":35}";1683.95;3;['1167_kiss', '5471_ignore', '5866_follow'];5471_ignore
4;2024-10-08;23:25:15;23;32;middle;"{""vid1"":24,""vid2"":24,""vid3"":24}";1452.26;4;['5788_examine', '6026_fight', '5471_ignore'];6026_fight
3;2024-10-08;23:19:39;35;36;middle;"{""vid1"":144,""vid2"":72,""vid3"":36}";1839.14;3;['5528_hug', '5788_examine', '5866_follow'];5788_examine
3;2024-10-08;23:19:39;36;43;left;"{""vid1"":74,""vid2"":37,""vid3"":37}";1864.733;3;['6058_leave', '4789_bother', '1167_kiss'];6058_leave
3;2024-10-08;23:19:39;37;39;right;"{""vid1"":76,""vid2"":76,""vid3"":38}";1881.663;3;['4861_throw', '6239_pull', '4788_capture'];4788_capture
3;2024-10-08;23:19:39;38;25;left;"{""vid1"":117,""vid2"":78,""vid3"":78}";1927.131;3;['5568_push', '5866_follow', '1051_herd'];5568_push
4;2024-10-08;23:25:15;24;43;left;"{""vid1"":25,""vid2"":25,""vid3"":25}";1554.039;4;['6300_accompany', '4926_lead', '6013_talk to'];6300_accompany
3;2024-10-08;23:19:39;39;32;middle;"{""vid1"":80,""vid2"":40,""vid3"":40}";1959.646;3;['5096_approach', '5528_hug', '4793_avoid'];5528_hug
4;2024-10-08;23:25:15;25;21;middle;"{""vid1"":52,""vid2"":52,""vid3"":26}";1621.368;4;['5096_approach', '4806_flirt with', '1051_herd'];4806_flirt with
3;2024-10-08;23:19:39;40;42;middle;"{""vid1"":123,""vid2"":41,""vid3"":82}";2021.811;3;['4789_bother', '6239_pull', '6300_accompany'];6239_pull
4;2024-10-08;23:25:15;26;31;left;"{""vid1"":27,""vid2"":27,""vid3"":27}";1684.538;4;['5901_huddle with', '5096_approach', '5866_follow'];5901_huddle with
4;2024-10-08;23:25:15;27;42;middle;"{""vid1"":28,""vid2"":28,""vid3"":28}";1714.508;4;['4789_bother', '4788_capture', '5788_examine'];4788_capture
3;2024-10-08;23:19:39;41;40;right;"{""vid1"":84,""vid2"":84,""vid3"":84}";2128.194;3;['4861_throw', '4806_flirt with', '4793_avoid'];4793_avoid
4;2024-10-08;23:25:15;28;34;middle;"{""vid1"":58,""vid2"":29,""vid3"":29}";1777.386;4;['6300_accompany', '5901_huddle with', '4926_lead'];5901_huddle with
3;2024-10-08;23:19:39;42;19;left;"{""vid1"":43,""vid2"":43,""vid3"":43}";2155.845;3;['5866_follow', '6013_talk to', '6026_fight'];5866_follow
3;2024-10-08;23:19:39;43;27;middle;"{""vid1"":88,""vid2"":44,""vid3"":44}";2203.36;3;['5866_follow', '6239_pull', '5790_escape'];6239_pull
4;2024-10-08;23:25:15;29;17;middle;"{""vid1"":60,""vid2"":30,""vid3"":30}";1843.665;4;['1167_kiss', '6172_hit', '6013_talk to'];6172_hit
3;2024-10-08;23:19:39;44;18;left;"{""vid1"":135,""vid2"":45,""vid3"":45}";2233.544;3;['5568_push', '6058_leave', '4789_bother'];5568_push
4;2024-10-08;23:25:15;30;29;left;"{""vid1"":31,""vid2"":62,""vid3"":31}";1903.497;4;['1051_herd', '5901_huddle with', '4793_avoid'];1051_herd
4;2024-10-08;23:25:15;31;36;middle;"{""vid1"":64,""vid2"":32,""vid3"":32}";1968.083;4;['5570_poke', '6026_fight', '1104_tickle'];6026_fight
5;2024-10-08;23:56:06;0;1;right;"{""vid1"":1,""vid2"":1,""vid3"":2}";30.15;5;['5788_examine', '6058_leave', '5876_creep up on'];5876_creep up on
4;2024-10-08;23:25:15;32;9;middle;"{""vid1"":33,""vid2"":33,""vid3"":33}";2004.56;4;['1121_scratch', '6300_accompany', '6026_fight'];6300_accompany
6;2024-10-08;23:57:45;0;28;left;"{""vid1"":1,""vid2"":1,""vid3"":1}";23.506;6;['1167_kiss', '5876_creep up on', '4926_lead'];1167_kiss
4;2024-10-08;23:25:15;33;39;left;"{""vid1"":34,""vid2"":34,""vid3"":34}";2029.274;4;['5096_approach', '5905_encircle', '5790_escape'];5096_approach
5;2024-10-08;23:56:06;1;2;right;"{""vid1"":2,""vid2"":2,""vid3"":2}";64.715;5;['5790_escape', '5788_examine', '4806_flirt with'];4806_flirt with
4;2024-10-08;23:25:15;34;16;middle;"{""vid1"":35,""vid2"":35,""vid3"":35}";2056.521;4;['5866_follow', '5471_ignore', '5096_approach'];5471_ignore
6;2024-10-08;23:57:45;1;27;middle;"{""vid1"":4,""vid2"":2,""vid3"":2}";68.329;6;['1104_tickle', '4806_flirt with', '5790_escape'];4806_flirt with
4;2024-10-08;23:25:15;35;10;middle;"{""vid1"":36,""vid2"":36,""vid3"":36}";2078.571;4;['5568_push', '6239_pull', '4806_flirt with'];6239_pull
5;2024-10-08;23:56:06;2;21;right;"{""vid1"":9,""vid2"":9,""vid3"":6}";122.666;5;['5905_encircle', '6013_talk to', '5876_creep up on'];5876_creep up on
6;2024-10-08;23:57:45;2;21;right;"{""vid1"":3,""vid2"":3,""vid3"":3}";94.477;6;['4926_lead', '5866_follow', '4793_avoid'];4793_avoid
4;2024-10-08;23:25:15;36;19;right;"{""vid1"":37,""vid2"":37,""vid3"":37}";2115.751;4;['5901_huddle with', '5528_hug', '1051_herd'];1051_herd
6;2024-10-08;23:57:45;3;23;left;"{""vid1"":4,""vid2"":4,""vid3"":4}";121.343;6;['4788_capture', '4793_avoid', '1051_herd'];4788_capture
4;2024-10-08;23:25:15;37;12;right;"{""vid1"":38,""vid2"":38,""vid3"":38}";2131.218;4;['5528_hug', '6026_fight', '4861_throw'];4861_throw
5;2024-10-08;23:56:06;3;40;middle;"{""vid1"":8,""vid2"":4,""vid3"":4}";161.531;5;['4806_flirt with', '5901_huddle with', '6013_talk to'];5901_huddle with
6;2024-10-08;23:57:45;4;38;left;"{""vid1"":5,""vid2"":5,""vid3"":5}";144.399;6;['5528_hug', '4926_lead', '6300_accompany'];5528_hug
5;2024-10-08;23:56:06;4;28;right;"{""vid1"":5,""vid2"":10,""vid3"":5}";212.264;5;['6026_fight', '6300_accompany', '4789_bother'];4789_bother
6;2024-10-08;23:57:45;5;33;right;"{""vid1"":12,""vid2"":12,""vid3"":12}";194.305;6;['1104_tickle', '6013_talk to', '4926_lead'];4926_lead
5;2024-10-08;23:56:06;5;38;right;"{""vid1"":6,""vid2"":6,""vid3"":6}";244.585;5;['4806_flirt with', '5570_poke', '4789_bother'];4789_bother
4;2024-10-08;23:25:15;38;37;right;"{""vid1"":78,""vid2"":39,""vid3"":39}";2223.447;4;['5905_encircle', '1167_kiss', '6239_pull'];6239_pull
6;2024-10-08;23:57:45;6;3;middle;"{""vid1"":14,""vid2"":14,""vid3"":7}";225.427;6;['5901_huddle with', '5570_poke', '5096_approach'];5570_poke
5;2024-10-08;23:56:06;6;9;right;"{""vid1"":7,""vid2"":7,""vid3"":7}";268.741;5;['5876_creep up on', '5096_approach', '4861_throw'];4861_throw
4;2024-10-08;23:25:15;39;4;left;"{""vid1"":40,""vid2"":40,""vid3"":40}";2243.147;4;['5905_encircle', '1121_scratch', '1167_kiss'];5905_encircle
6;2024-10-08;23:57:45;7;41;right;"{""vid1"":8,""vid2"":8,""vid3"":8}";255.806;6;['4806_flirt with', '5790_escape', '6058_leave'];6058_leave
5;2024-10-08;23:56:06;7;25;right;"{""vid1"":8,""vid2"":8,""vid3"":8}";285.781;5;['5568_push', '5866_follow', '6058_leave'];6058_leave
5;2024-10-08;23:56:06;8;43;middle;"{""vid1"":9,""vid2"":9,""vid3"":9}";315.737;5;['6013_talk to', '1104_tickle', '6300_accompany'];1104_tickle
6;2024-10-08;23:57:45;8;25;right;"{""vid1"":18,""vid2"":18,""vid3"":9}";298.031;6;['4788_capture', '1167_kiss', '4789_bother'];4789_bother
5;2024-10-08;23:56:06;9;4;middle;"{""vid1"":20,""vid2"":20,""vid3"":10}";339.01;5;['1121_scratch', '4861_throw', '5528_hug'];4861_throw
4;2024-10-08;23:25:15;40;8;middle;"{""vid1"":41,""vid2"":41,""vid3"":41}";2321.079;4;['4861_throw', '1121_scratch', '4793_avoid'];1121_scratch
6;2024-10-08;23:57:45;9;42;middle;"{""vid1"":20,""vid2"":10,""vid3"":10}";335.3;6;['6172_hit', '6026_fight', '5570_poke'];6026_fight
5;2024-10-08;23:56:06;10;29;right;"{""vid1"":22,""vid2"":11,""vid3"":11}";364.983;5;['6058_leave', '5790_escape', '1121_scratch'];1121_scratch
4;2024-10-08;23:25:15;41;3;left;"{""vid1"":42,""vid2"":42,""vid3"":42}";2338.845;4;['4926_lead', '1121_scratch', '5570_poke'];4926_lead
5;2024-10-08;23:56:06;11;30;right;"{""vid1"":12,""vid2"":12,""vid3"":12}";384.204;5;['4861_throw', '5866_follow', '5905_encircle'];5905_encircle
6;2024-10-08;23:57:45;10;34;right;"{""vid1"":11,""vid2"":11,""vid3"":11}";357.975;6;['5905_encircle', '5901_huddle with', '6239_pull'];6239_pull
4;2024-10-08;23:25:15;42;25;left;"{""vid1"":43,""vid2"":43,""vid3"":43}";2366.975;4;['5096_approach', '6026_fight', '6172_hit'];5096_approach
5;2024-10-08;23:56:06;12;37;middle;"{""vid1"":13,""vid2"":13,""vid3"":13}";398.609;5;['6239_pull', '4861_throw', '5901_huddle with'];4861_throw
4;2024-10-08;23:25:15;43;38;right;"{""vid1"":44,""vid2"":44,""vid3"":44}";2392.693;4;['1051_herd', '5568_push', '5570_poke'];5570_poke
5;2024-10-08;23:56:06;13;13;right;"{""vid1"":14,""vid2"":14,""vid3"":14}";426.052;5;['5876_creep up on', '5570_poke', '4806_flirt with'];4806_flirt with
6;2024-10-08;23:57:45;11;14;middle;"{""vid1"":24,""vid2"":24,""vid3"":24}";400.393;6;['1121_scratch', '1104_tickle', '5570_poke'];1104_tickle
6;2024-10-08;23:57:45;12;37;middle;"{""vid1"":13,""vid2"":13,""vid3"":13}";425.022;6;['5790_escape', '5528_hug', '4806_flirt with'];5528_hug
5;2024-10-08;23:56:06;14;32;left;"{""vid1"":15,""vid2"":15,""vid3"":15}";454.781;5;['6058_leave', '5788_examine', '5568_push'];6058_leave
4;2024-10-08;23:25:15;44;40;middle;"{""vid1"":90,""vid2"":45,""vid3"":45}";2450.921;4;['4789_bother', '5528_hug', '6172_hit'];5528_hug
6;2024-10-08;23:57:45;13;19;left;"{""vid1"":14,""vid2"":14,""vid3"":14}";453.75;6;['5788_examine', '5096_approach', '6300_accompany'];5788_examine
5;2024-10-08;23:56:06;15;39;right;"{""vid1"":16,""vid2"":16,""vid3"":16}";488.993;5;['4789_bother', '4793_avoid', '5790_escape'];5790_escape
6;2024-10-08;23:57:45;14;8;middle;"{""vid1"":15,""vid2"":15,""vid3"":15}";469.468;6;['5866_follow', '5905_encircle', '4788_capture'];5905_encircle
6;2024-10-08;23:57:45;15;20;right;"{""vid1"":16,""vid2"":16,""vid3"":16}";486.963;6;['5866_follow', '4926_lead', '5570_poke'];5570_poke
5;2024-10-08;23:56:06;16;17;right;"{""vid1"":34,""vid2"":17,""vid3"":17}";520.082;5;['4861_throw', '5901_huddle with', '4793_avoid'];4793_avoid
6;2024-10-08;23:57:45;16;26;right;"{""vid1"":17,""vid2"":17,""vid3"":17}";511.923;6;['6172_hit', '1104_tickle', '4926_lead'];4926_lead
5;2024-10-08;23:56:06;17;10;left;"{""vid1"":36,""vid2"":18,""vid3"":18}";547.515;5;['5471_ignore', '4861_throw', '1167_kiss'];5471_ignore
6;2024-10-08;23:57:45;17;4;left;"{""vid1"":18,""vid2"":18,""vid3"":18}";543.613;6;['5788_examine', '4789_bother', '6026_fight'];5788_examine
5;2024-10-08;23:56:06;18;15;left;"{""vid1"":19,""vid2"":19,""vid3"":19}";574.446;5;['4926_lead', '1121_scratch', '4806_flirt with'];4926_lead
5;2024-10-08;23:56:06;19;14;right;"{""vid1"":20,""vid2"":20,""vid3"":20}";600.366;5;['4926_lead', '4861_throw', '5790_escape'];5790_escape
6;2024-10-08;23:57:45;18;18;left;"{""vid1"":38,""vid2"":19,""vid3"":19}";582.673;6;['5788_examine', '4793_avoid', '5096_approach'];5788_examine
5;2024-10-08;23:56:06;20;33;right;"{""vid1"":21,""vid2"":21,""vid3"":21}";617.298;5;['4788_capture', '5866_follow', '5568_push'];5568_push
7;2024-10-09;00:08:22;0;21;middle;"{""vid1"":1,""vid2"":1,""vid3"":1}";48.445;7;['6300_accompany', '5096_approach', '5866_follow'];5096_approach
6;2024-10-08;23:57:45;19;2;left;"{""vid1"":20,""vid2"":20,""vid3"":20}";607.344;6;['1121_scratch', '4789_bother', '1104_tickle'];1121_scratch
7;2024-10-09;00:08:22;1;5;right;"{""vid1"":2,""vid2"":2,""vid3"":2}";63.905;7;['4788_capture', '5866_follow', '4861_throw'];4861_throw
5;2024-10-08;23:56:06;21;16;middle;"{""vid1"":22,""vid2"":22,""vid3"":22}";647.83;5;['6026_fight', '4793_avoid', '5905_encircle'];4793_avoid
6;2024-10-08;23:57:45;20;7;left;"{""vid1"":21,""vid2"":21,""vid3"":21}";623.698;6;['1051_herd', '5528_hug', '5570_poke'];1051_herd
7;2024-10-09;00:08:22;2;32;middle;"{""vid1"":3,""vid2"":3,""vid3"":3}";84.875;7;['5876_creep up on', '5568_push', '5096_approach'];5568_push
5;2024-10-08;23:56:06;22;23;right;"{""vid1"":23,""vid2"":46,""vid3"":23}";673.997;5;['6239_pull', '6013_talk to', '5568_push'];5568_push
7;2024-10-09;00:08:22;3;17;left;"{""vid1"":4,""vid2"":4,""vid3"":4}";107.92;7;['1121_scratch', '6239_pull', '5570_poke'];1121_scratch
6;2024-10-08;23:57:45;21;16;left;"{""vid1"":44,""vid2"":22,""vid3"":22}";655.883;6;['5905_encircle', '1167_kiss', '6172_hit'];5905_encircle
5;2024-10-08;23:56:06;23;36;left;"{""vid1"":24,""vid2"":24,""vid3"":24}";695.631;5;['1121_scratch', '5876_creep up on', '1104_tickle'];1121_scratch
6;2024-10-08;23:57:45;22;0;left;"{""vid1"":46,""vid2"":23,""vid3"":23}";683.328;6;['4861_throw', '6026_fight', '6300_accompany'];4861_throw
7;2024-10-09;00:08:22;4;44;middle;"{""vid1"":5,""vid2"":5,""vid3"":10}";149.467;7;['6013_talk to', '5876_creep up on', '5790_escape'];5876_creep up on
8;2024-10-09;00:07:33;0;3;left;"{""vid1"":2,""vid2"":3,""vid3"":2}";49.026;8;['6300_accompany', '4788_capture', '6026_fight'];6300_accompany
7;2024-10-09;00:08:22;5;37;middle;"{""vid1"":6,""vid2"":6,""vid3"":6}";170.389;7;['6300_accompany', '5568_push', '4788_capture'];5568_push
6;2024-10-08;23:57:45;23;43;middle;"{""vid1"":48,""vid2"":24,""vid3"":24}";718.526;6;['4926_lead', '5788_examine', '5866_follow'];5788_examine
8;2024-10-09;00:07:33;1;1;right;"{""vid1"":2,""vid2"":2,""vid3"":2}";83.96;8;['4793_avoid', '4789_bother', '5866_follow'];5866_follow
8;2024-10-09;00:07:33;2;17;middle;"{""vid1"":6,""vid2"":9,""vid3"":6}";131.579;8;['1121_scratch', '5876_creep up on', '5901_huddle with'];5876_creep up on
7;2024-10-09;00:08:22;6;33;middle;"{""vid1"":14,""vid2"":7,""vid3"":7}";243.926;7;['5790_escape', '5568_push', '4861_throw'];5568_push
5;2024-10-08;23:56:06;24;34;right;"{""vid1"":25,""vid2"":25,""vid3"":50}";819.503;5;['4861_throw', '5901_huddle with', '5471_ignore'];5471_ignore
6;2024-10-08;23:57:45;24;13;right;"{""vid1"":100,""vid2"":75,""vid3"":100}";804.082;6;['5568_push', '6172_hit', '5096_approach'];5096_approach
7;2024-10-09;00:08:22;7;0;middle;"{""vid1"":8,""vid2"":8,""vid3"":8}";275.185;7;['1051_herd', '6172_hit', '1167_kiss'];6172_hit
7;2024-10-09;00:08:22;8;24;right;"{""vid1"":9,""vid2"":9,""vid3"":9}";301.523;7;['5876_creep up on', '1051_herd', '5096_approach'];5096_approach
8;2024-10-09;00:07:33;3;41;right;"{""vid1"":8,""vid2"":12,""vid3"":8}";191.379;8;['5866_follow', '5876_creep up on', '5528_hug'];5528_hug
6;2024-10-08;23:57:45;25;6;middle;"{""vid1"":52,""vid2"":26,""vid3"":26}";846.502;6;['4806_flirt with', '5876_creep up on', '6026_fight'];5876_creep up on
8;2024-10-09;00:07:33;4;33;right;"{""vid1"":5,""vid2"":5,""vid3"":5}";209.529;8;['5568_push', '5528_hug', '6013_talk to'];6013_talk to
5;2024-10-08;23:56:06;25;24;right;"{""vid1"":26,""vid2"":26,""vid3"":26}";892.529;5;['6026_fight', '4926_lead', '5096_approach'];5096_approach
7;2024-10-09;00:08:22;9;27;middle;"{""vid1"":10,""vid2"":10,""vid3"":10}";323.33;7;['1051_herd', '5901_huddle with', '1121_scratch'];5901_huddle with
6;2024-10-08;23:57:45;26;11;left;"{""vid1"":54,""vid2"":54,""vid3"":27}";885.638;6;['1167_kiss', '6172_hit', '6058_leave'];1167_kiss
7;2024-10-09;00:08:22;10;42;left;"{""vid1"":11,""vid2"":11,""vid3"":11}";349.964;7;['5096_approach', '6172_hit', '1104_tickle'];5096_approach
5;2024-10-08;23:56:06;26;6;right;"{""vid1"":27,""vid2"":27,""vid3"":27}";923.007;5;['5790_escape', '5570_poke', '1167_kiss'];1167_kiss
8;2024-10-09;00:07:33;5;31;left;"{""vid1"":12,""vid2"":12,""vid3"":6}";250.163;8;['5096_approach', '4788_capture', '5471_ignore'];5096_approach
6;2024-10-08;23:57:45;27;24;left;"{""vid1"":28,""vid2"":28,""vid3"":28}";920.617;6;['4789_bother', '6013_talk to', '5790_escape'];4789_bother
5;2024-10-08;23:56:06;27;3;right;"{""vid1"":28,""vid2"":28,""vid3"":28}";954.68;5;['4793_avoid', '5788_examine', '1167_kiss'];1167_kiss
8;2024-10-09;00:07:33;6;4;right;"{""vid1"":14,""vid2"":7,""vid3"":7}";283.647;8;['5866_follow', '6300_accompany', '6026_fight'];6026_fight
7;2024-10-09;00:08:22;11;14;left;"{""vid1"":12,""vid2"":24,""vid3"":12}";408.195;7;['4789_bother', '5528_hug', '6300_accompany'];4789_bother
6;2024-10-08;23:57:45;28;40;left;"{""vid1"":29,""vid2"":29,""vid3"":29}";955.329;6;['6013_talk to', '4793_avoid', '4789_bother'];6013_talk to
5;2024-10-08;23:56:06;28;41;middle;"{""vid1"":58,""vid2"":29,""vid3"":29}";996.749;5;['6300_accompany', '5876_creep up on', '4789_bother'];5876_creep up on
8;2024-10-09;00:07:33;7;18;left;"{""vid1"":16,""vid2"":16,""vid3"":8}";315.582;8;['1167_kiss', '6239_pull', '6026_fight'];1167_kiss
7;2024-10-09;00:08:22;12;19;right;"{""vid1"":13,""vid2"":13,""vid3"":13}";426.664;7;['6058_leave', '6239_pull', '4793_avoid'];4793_avoid
6;2024-10-08;23:57:45;29;1;middle;"{""vid1"":30,""vid2"":30,""vid3"":30}";970.619;6;['1104_tickle', '5528_hug', '5568_push'];5528_hug
8;2024-10-09;00:07:33;8;42;left;"{""vid1"":9,""vid2"":9,""vid3"":9}";342.832;8;['1051_herd', '5905_encircle', '5788_examine'];1051_herd
6;2024-10-08;23:57:45;30;15;right;"{""vid1"":62,""vid2"":31,""vid3"":31}";1000.149;6;['6013_talk to', '5876_creep up on', '1121_scratch'];1121_scratch
5;2024-10-08;23:56:06;29;42;middle;"{""vid1"":30,""vid2"":30,""vid3"":30}";1029.831;5;['5790_escape', '6172_hit', '6013_talk to'];6172_hit
7;2024-10-09;00:08:22;13;39;middle;"{""vid1"":14,""vid2"":14,""vid3"":14}";462.125;7;['5790_escape', '1051_herd', '1167_kiss'];1051_herd
8;2024-10-09;00:07:33;9;6;right;"{""vid1"":10,""vid2"":10,""vid3"":10}";364.372;8;['1121_scratch', '4793_avoid', '5528_hug'];5528_hug
6;2024-10-08;23:57:45;31;32;left;"{""vid1"":32,""vid2"":32,""vid3"":32}";1020.067;6;['5905_encircle', '6026_fight', '4861_throw'];5905_encircle
5;2024-10-08;23:56:06;30;27;right;"{""vid1"":31,""vid2"":31,""vid3"":31}";1065.398;5;['4793_avoid', '5790_escape', '6172_hit'];6172_hit
7;2024-10-09;00:08:22;14;20;right;"{""vid1"":15,""vid2"":15,""vid3"":15}";496.113;7;['4789_bother', '6172_hit', '6300_accompany'];6300_accompany
8;2024-10-09;00:07:33;10;35;left;"{""vid1"":11,""vid2"":11,""vid3"":11}";397.25;8;['1121_scratch', '6300_accompany', '5788_examine'];1121_scratch
6;2024-10-08;23:57:45;32;36;right;"{""vid1"":66,""vid2"":33,""vid3"":33}";1052.963;6;['5876_creep up on', '4793_avoid', '5901_huddle with'];5901_huddle with
7;2024-10-09;00:08:22;15;7;left;"{""vid1"":16,""vid2"":16,""vid3"":16}";525.406;7;['6300_accompany', '4806_flirt with', '1104_tickle'];6300_accompany
8;2024-10-09;00:07:33;11;20;left;"{""vid1"":12,""vid2"":12,""vid3"":12}";421.917;8;['5568_push', '4793_avoid', '5471_ignore'];5568_push
6;2024-10-08;23:57:45;33;39;left;"{""vid1"":34,""vid2"":34,""vid3"":34}";1076.899;6;['1051_herd', '4861_throw', '4789_bother'];1051_herd
5;2024-10-08;23:56:06;31;22;right;"{""vid1"":32,""vid2"":32,""vid3"":32}";1106.19;5;['6026_fight', '5471_ignore', '5901_huddle with'];5901_huddle with
7;2024-10-09;00:08:22;16;38;middle;"{""vid1"":17,""vid2"":17,""vid3"":17}";551.806;7;['1104_tickle', '4926_lead', '4789_bother'];4926_lead
6;2024-10-08;23:57:45;34;12;left;"{""vid1"":35,""vid2"":35,""vid3"":35}";1103.754;6;['6013_talk to', '1051_herd', '5570_poke'];6013_talk to
5;2024-10-08;23:56:06;32;19;left;"{""vid1"":33,""vid2"":66,""vid3"":33}";1137.532;5;['4793_avoid', '4788_capture', '5876_creep up on'];4793_avoid
8;2024-10-09;00:07:33;12;26;left;"{""vid1"":26,""vid2"":13,""vid3"":13}";463.084;8;['5096_approach', '1104_tickle', '5568_push'];5096_approach
5;2024-10-08;23:56:06;33;11;left;"{""vid1"":34,""vid2"":34,""vid3"":34}";1168.297;5;['4793_avoid', '6172_hit', '5570_poke'];4793_avoid
8;2024-10-09;00:07:33;13;0;left;"{""vid1"":14,""vid2"":14,""vid3"":14}";490.369;8;['1104_tickle', '5788_examine', '5096_approach'];1104_tickle
7;2024-10-09;00:08:22;17;22;middle;"{""vid1"":18,""vid2"":18,""vid3"":18}";608.376;7;['6026_fight', '6172_hit', '6013_talk to'];6172_hit
6;2024-10-08;23:57:45;35;9;middle;"{""vid1"":72,""vid2"":72,""vid3"":72}";1154.127;6;['1121_scratch', '5876_creep up on', '4806_flirt with'];5876_creep up on
8;2024-10-09;00:07:33;14;9;left;"{""vid1"":15,""vid2"":15,""vid3"":15}";509.419;8;['1051_herd', '5568_push', '4788_capture'];1051_herd
5;2024-10-08;23:56:06;34;26;right;"{""vid1"":35,""vid2"":35,""vid3"":35}";1197.432;5;['6026_fight', '4926_lead', '5790_escape'];5790_escape
7;2024-10-09;00:08:22;18;6;middle;"{""vid1"":19,""vid2"":19,""vid3"":19}";637.238;7;['5790_escape', '6058_leave', '1167_kiss'];6058_leave
8;2024-10-09;00:07:33;15;29;left;"{""vid1"":16,""vid2"":16,""vid3"":16}";526.402;8;['4861_throw', '6013_talk to', '4788_capture'];4861_throw
6;2024-10-08;23:57:45;36;22;right;"{""vid1"":74,""vid2"":74,""vid3"":37}";1183.32;6;['1104_tickle', '4788_capture', '5570_poke'];5570_poke
5;2024-10-08;23:56:06;35;8;right;"{""vid1"":36,""vid2"":36,""vid3"":36}";1217.465;5;['6239_pull', '5866_follow', '6058_leave'];6058_leave
6;2024-10-08;23:57:45;37;17;left;"{""vid1"":38,""vid2"":38,""vid3"":38}";1201.18;6;['1167_kiss', '1121_scratch', '5901_huddle with'];1167_kiss
8;2024-10-09;00:07:33;16;28;middle;"{""vid1"":34,""vid2"":51,""vid3"":34}";553.921;8;['4788_capture', '5568_push', '5570_poke'];5568_push
7;2024-10-09;00:08:22;19;8;middle;"{""vid1"":20,""vid2"":40,""vid3"":20}";672.14;7;['6172_hit', '5905_encircle', '5570_poke'];5905_encircle
5;2024-10-08;23:56:06;36;5;middle;"{""vid1"":37,""vid2"":37,""vid3"":37}";1244.612;5;['5788_examine', '4861_throw', '5471_ignore'];4861_throw
6;2024-10-08;23:57:45;38;31;middle;"{""vid1"":39,""vid2"":39,""vid3"":39}";1224.008;6;['6300_accompany', '5905_encircle', '6239_pull'];5905_encircle
8;2024-10-09;00:07:33;17;32;right;"{""vid1"":18,""vid2"":18,""vid3"":18}";584.255;8;['5876_creep up on', '5905_encircle', '5790_escape'];5790_escape
9;2024-10-09;00:18:53;0;43;right;"{""vid1"":1,""vid2"":1,""vid3"":2}";32.446;9;['4806_flirt with', '6172_hit', '6058_leave'];6058_leave
6;2024-10-08;23:57:45;39;10;left;"{""vid1"":80,""vid2"":40,""vid3"":40}";1247.769;6;['5866_follow', '5471_ignore', '6058_leave'];5866_follow
5;2024-10-08;23:56:06;37;7;right;"{""vid1"":38,""vid2"":38,""vid3"":38}";1278.096;5;['6300_accompany', '5471_ignore', '5788_examine'];5788_examine
8;2024-10-09;00:07:33;18;23;left;"{""vid1"":19,""vid2"":19,""vid3"":19}";604.988;8;['4926_lead', '5570_poke', '1104_tickle'];4926_lead
7;2024-10-09;00:08:22;20;9;right;"{""vid1"":21,""vid2"":21,""vid3"":21}";716.545;7;['4793_avoid', '4806_flirt with', '5471_ignore'];5471_ignore
9;2024-10-09;00:18:53;1;0;middle;"{""vid1"":4,""vid2"":2,""vid3"":2}";56.005;9;['4788_capture', '5790_escape', '5901_huddle with'];5790_escape
5;2024-10-08;23:56:06;38;31;right;"{""vid1"":39,""vid2"":39,""vid3"":39}";1304.372;5;['4806_flirt with', '4926_lead', '6239_pull'];6239_pull
6;2024-10-08;23:57:45;40;35;right;"{""vid1"":41,""vid2"":41,""vid3"":41}";1281.799;6;['6172_hit', '4806_flirt with', '6300_accompany'];6300_accompany
7;2024-10-09;00:08:22;21;3;right;"{""vid1"":22,""vid2"":22,""vid3"":22}";745.87;7;['6239_pull', '6172_hit', '5788_examine'];5788_examine
8;2024-10-09;00:07:33;19;30;middle;"{""vid1"":40,""vid2"":20,""vid3"":20}";637.872;8;['5876_creep up on', '6172_hit', '5901_huddle with'];6172_hit
6;2024-10-08;23:57:45;41;29;left;"{""vid1"":84,""vid2"":42,""vid3"":42}";1306.593;6;['4861_throw', '4806_flirt with', '1167_kiss'];4861_throw
9;2024-10-09;00:18:53;2;27;middle;"{""vid1"":6,""vid2"":6,""vid3"":6}";101.77;9;['5901_huddle with', '6026_fight', '4788_capture'];6026_fight
8;2024-10-09;00:07:33;20;14;right;"{""vid1"":21,""vid2"":21,""vid3"":21}";659.84;8;['4926_lead', '5471_ignore', '5901_huddle with'];5901_huddle with
7;2024-10-09;00:08:22;22;12;middle;"{""vid1"":23,""vid2"":23,""vid3"":23}";771.947;7;['6058_leave', '5096_approach', '4793_avoid'];5096_approach
6;2024-10-08;23:57:45;42;30;right;"{""vid1"":43,""vid2"":43,""vid3"":43}";1322.346;6;['1104_tickle', '6058_leave', '5901_huddle with'];5901_huddle with
8;2024-10-09;00:07:33;21;36;left;"{""vid1"":22,""vid2"":22,""vid3"":22}";685.889;8;['5471_ignore', '4789_bother', '5568_push'];5471_ignore
7;2024-10-09;00:08:22;23;34;left;"{""vid1"":24,""vid2"":24,""vid3"":24}";797.796;7;['6058_leave', '5788_examine', '5905_encircle'];6058_leave
9;2024-10-09;00:18:53;3;31;middle;"{""vid1"":8,""vid2"":4,""vid3"":4}";133.373;9;['5471_ignore', '6058_leave', '4806_flirt with'];6058_leave
6;2024-10-08;23:57:45;43;5;right;"{""vid1"":44,""vid2"":44,""vid3"":44}";1351.228;6;['4806_flirt with', '5866_follow', '5788_examine'];5788_examine
5;2024-10-08;23:56:06;39;18;right;"{""vid1"":80,""vid2"":80,""vid3"":80}";1381.384;5;['6172_hit', '6300_accompany', '1167_kiss'];1167_kiss
7;2024-10-09;00:08:22;24;43;middle;"{""vid1"":25,""vid2"":25,""vid3"":25}";823.296;7;['5570_poke', '5866_follow', '6026_fight'];5866_follow
8;2024-10-09;00:07:33;22;19;middle;"{""vid1"":23,""vid2"":23,""vid3"":23}";718.556;8;['4793_avoid', '6026_fight', '5788_examine'];6026_fight
6;2024-10-08;23:57:45;44;44;right;"{""vid1"":45,""vid2"":45,""vid3"":45}";1372.895;6;['5528_hug', '4806_flirt with', '5471_ignore'];5471_ignore
5;2024-10-08;23:56:06;40;35;right;"{""vid1"":41,""vid2"":41,""vid3"":41}";1407.131;5;['4806_flirt with', '5876_creep up on', '5901_huddle with'];5901_huddle with
9;2024-10-09;00:18:53;4;35;middle;"{""vid1"":10,""vid2"":5,""vid3"":5}";169.681;9;['5096_approach', '6013_talk to', '4793_avoid'];6013_talk to
9;2024-10-09;00:18:53;5;38;right;"{""vid1"":6,""vid2"":6,""vid3"":6}";181.461;9;['5528_hug', '5570_poke', '5568_push'];5568_push
7;2024-10-09;00:08:22;25;31;middle;"{""vid1"":26,""vid2"":26,""vid3"":26}";853.244;7;['4793_avoid', '4861_throw', '5788_examine'];4861_throw
5;2024-10-08;23:56:06;41;20;middle;"{""vid1"":42,""vid2"":42,""vid3"":42}";1427.405;5;['4793_avoid', '5570_poke', '4788_capture'];5570_poke
8;2024-10-09;00:07:33;23;24;left;"{""vid1"":24,""vid2"":24,""vid3"":24}";748.441;8;['5901_huddle with', '6300_accompany', '4793_avoid'];5901_huddle with
9;2024-10-09;00:18:53;6;24;right;"{""vid1"":7,""vid2"":7,""vid3"":7}";204.148;9;['5788_examine', '5901_huddle with', '5568_push'];5568_push
7;2024-10-09;00:08:22;26;28;middle;"{""vid1"":27,""vid2"":27,""vid3"":27}";883.659;7;['6172_hit', '4793_avoid', '1167_kiss'];4793_avoid
8;2024-10-09;00:07:33;24;44;middle;"{""vid1"":25,""vid2"":25,""vid3"":25}";777.791;8;['5096_approach', '6013_talk to', '1051_herd'];6013_talk to
9;2024-10-09;00:18:53;7;6;right;"{""vid1"":8,""vid2"":8,""vid3"":8}";233.618;9;['5901_huddle with', '5788_examine', '4793_avoid'];4793_avoid
5;2024-10-08;23:56:06;42;44;middle;"{""vid1"":43,""vid2"":43,""vid3"":86}";1478.024;5;['1121_scratch', '5568_push', '4788_capture'];5568_push
10;2024-10-09;00:23:22;0;39;right;"{""vid1"":1,""vid2"":1,""vid3"":1}";20.17;10;['6013_talk to', '5096_approach', '5570_poke'];5570_poke
8;2024-10-09;00:07:33;25;13;right;"{""vid1"":26,""vid2"":26,""vid3"":26}";801.425;8;['1051_herd', '5570_poke', '5901_huddle with'];5901_huddle with
7;2024-10-09;00:08:22;27;10;right;"{""vid1"":28,""vid2"":28,""vid3"":28}";914.373;7;['6172_hit', '5866_follow', '4806_flirt with'];4806_flirt with
10;2024-10-09;00:23:22;1;30;right;"{""vid1"":2,""vid2"":2,""vid3"":2}";49.13;10;['6172_hit', '4793_avoid', '5901_huddle with'];5901_huddle with
8;2024-10-09;00:07:33;26;5;right;"{""vid1"":27,""vid2"":27,""vid3"":27}";826.926;8;['5788_examine', '6300_accompany', '6239_pull'];6239_pull
9;2024-10-09;00:18:53;8;1;left;"{""vid1"":18,""vid2"":18,""vid3"":9}";270.518;9;['4861_throw', '5096_approach', '5788_examine'];4861_throw
5;2024-10-08;23:56:06;43;0;middle;"{""vid1"":44,""vid2"":44,""vid3"":44}";1511.75;5;['6026_fight', '5866_follow', '4788_capture'];5866_follow
7;2024-10-09;00:08:22;28;35;middle;"{""vid1"":29,""vid2"":29,""vid3"":29}";941.083;7;['6013_talk to', '5901_huddle with', '6172_hit'];5901_huddle with
10;2024-10-09;00:23:22;2;29;left;"{""vid1"":6,""vid2"":3,""vid3"":3}";69.356;10;['5570_poke', '5096_approach', '5905_encircle'];5570_poke
8;2024-10-09;00:07:33;27;34;right;"{""vid1"":28,""vid2"":28,""vid3"":28}";853.177;8;['5790_escape', '6058_leave', '6300_accompany'];6300_accompany
7;2024-10-09;00:08:22;29;41;right;"{""vid1"":30,""vid2"":30,""vid3"":30}";970.608;7;['4789_bother', '1051_herd', '5901_huddle with'];5901_huddle with
9;2024-10-09;00:18:53;9;37;left;"{""vid1"":20,""vid2"":20,""vid3"":10}";307.222;9;['6026_fight', '4788_capture', '4789_bother'];6026_fight
10;2024-10-09;00:23:22;3;38;right;"{""vid1"":8,""vid2"":4,""vid3"":4}";97.505;10;['5866_follow', '6239_pull', '5788_examine'];5788_examine
9;2024-10-09;00:18:53;10;9;right;"{""vid1"":11,""vid2"":11,""vid3"":11}";327.176;9;['6026_fight', '1167_kiss', '4788_capture'];4788_capture
7;2024-10-09;00:08:22;30;40;middle;"{""vid1"":31,""vid2"":31,""vid3"":31}";999.796;7;['1051_herd', '6026_fight', '5096_approach'];6026_fight
9;2024-10-09;00:18:53;11;25;left;"{""vid1"":12,""vid2"":12,""vid3"":12}";344.176;9;['4861_throw', '1167_kiss', '5905_encircle'];4861_throw
8;2024-10-09;00:07:33;28;37;left;"{""vid1"":58,""vid2"":58,""vid3"":29}";905.245;8;['5790_escape', '4793_avoid', '5876_creep up on'];5790_escape
5;2024-10-08;23:56:06;44;12;left;"{""vid1"":45,""vid2"":45,""vid3"":45}";1592.732;5;['4861_throw', '6239_pull', '1167_kiss'];4861_throw
9;2024-10-09;00:18:53;12;16;middle;"{""vid1"":13,""vid2"":13,""vid3"":13}";365.891;9;['4861_throw', '5901_huddle with', '4806_flirt with'];5901_huddle with
7;2024-10-09;00:08:22;31;30;middle;"{""vid1"":32,""vid2"":32,""vid3"":32}";1040.348;7;['4789_bother', '4861_throw', '5568_push'];4861_throw
8;2024-10-09;00:07:33;29;21;left;"{""vid1"":30,""vid2"":60,""vid3"":30}";930.013;8;['5528_hug', '5876_creep up on', '4861_throw'];5528_hug
9;2024-10-09;00:18:53;13;26;right;"{""vid1"":14,""vid2"":14,""vid3"":14}";396.067;9;['6026_fight', '6300_accompany', '5788_examine'];5788_examine
7;2024-10-09;00:08:22;32;23;middle;"{""vid1"":33,""vid2"":33,""vid3"":33}";1065.891;7;['4926_lead', '5471_ignore', '1051_herd'];5471_ignore
10;2024-10-09;00:23:22;4;23;right;"{""vid1"":10,""vid2"":10,""vid3"":5}";185.827;10;['5788_examine', '5905_encircle', '4861_throw'];4861_throw
8;2024-10-09;00:07:33;30;12;left;"{""vid1"":31,""vid2"":31,""vid3"":31}";965.795;8;['6026_fight', '4806_flirt with', '6300_accompany'];6026_fight
7;2024-10-09;00:08:22;33;18;right;"{""vid1"":34,""vid2"":34,""vid3"":34}";1086.804;7;['6300_accompany', '5096_approach', '5528_hug'];5528_hug
8;2024-10-09;00:07:33;31;38;left;"{""vid1"":32,""vid2"":32,""vid3"":32}";991.246;8;['1167_kiss', '5570_poke', '6013_talk to'];1167_kiss
10;2024-10-09;00:23:22;5;1;left;"{""vid1"":6,""vid2"":12,""vid3"":6}";220.409;10;['5790_escape', '5866_follow', '6172_hit'];5790_escape
7;2024-10-09;00:08:22;34;11;left;"{""vid1"":35,""vid2"":35,""vid3"":35}";1112.366;7;['5471_ignore', '6172_hit', '1104_tickle'];5471_ignore
8;2024-10-09;00:07:33;32;11;right;"{""vid1"":33,""vid2"":33,""vid3"":33}";1015.38;8;['6013_talk to', '5901_huddle with', '1167_kiss'];1167_kiss
7;2024-10-09;00:08:22;35;1;left;"{""vid1"":36,""vid2"":36,""vid3"":36}";1142.144;7;['4793_avoid', '5096_approach', '6300_accompany'];4793_avoid
8;2024-10-09;00:07:33;33;40;right;"{""vid1"":34,""vid2"":34,""vid3"":34}";1035.914;8;['4788_capture', '1167_kiss', '5905_encircle'];5905_encircle
10;2024-10-09;00:23:22;6;22;right;"{""vid1"":14,""vid2"":7,""vid3"":7}";266.076;10;['5570_poke', '5901_huddle with', '5788_examine'];5788_examine
8;2024-10-09;00:07:33;34;22;right;"{""vid1"":35,""vid2"":35,""vid3"":35}";1052.931;8;['5568_push', '5471_ignore', '4861_throw'];4861_throw
9;2024-10-09;00:18:53;14;10;left;"{""vid1"":30,""vid2"":30,""vid3"":30}";499.069;9;['5905_encircle', '6172_hit', '4806_flirt with'];5905_encircle
7;2024-10-09;00:08:22;36;15;left;"{""vid1"":37,""vid2"":37,""vid3"":37}";1174.916;7;['1121_scratch', '5905_encircle', '6026_fight'];1121_scratch
10;2024-10-09;00:23:22;7;16;left;"{""vid1"":16,""vid2"":8,""vid3"":8}";291.664;10;['1167_kiss', '6058_leave', '5901_huddle with'];1167_kiss
9;2024-10-09;00:18:53;15;17;left;"{""vid1"":16,""vid2"":16,""vid3"":16}";528.104;9;['5788_examine', '6026_fight', '6013_talk to'];5788_examine
8;2024-10-09;00:07:33;35;10;middle;"{""vid1"":36,""vid2"":36,""vid3"":36}";1094.332;8;['4861_throw', '1051_herd', '5876_creep up on'];1051_herd
10;2024-10-09;00:23:22;8;20;right;"{""vid1"":9,""vid2"":9,""vid3"":9}";319.76;10;['4793_avoid', '4926_lead', '5901_huddle with'];5901_huddle with
7;2024-10-09;00:08:22;37;26;middle;"{""vid1"":38,""vid2"":38,""vid3"":38}";1211.519;7;['5096_approach', '4861_throw', '6026_fight'];4861_throw
9;2024-10-09;00:18:53;16;42;middle;"{""vid1"":17,""vid2"":17,""vid3"":17}";551.515;9;['5790_escape', '5905_encircle', '1104_tickle'];5905_encircle
8;2024-10-09;00:07:33;36;27;right;"{""vid1"":37,""vid2"":37,""vid3"":37}";1126.666;8;['4789_bother', '5570_poke', '1167_kiss'];1167_kiss
9;2024-10-09;00:18:53;17;8;middle;"{""vid1"":18,""vid2"":18,""vid3"":18}";573.523;9;['4926_lead', '5570_poke', '6300_accompany'];5570_poke
10;2024-10-09;00:23:22;9;6;middle;"{""vid1"":20,""vid2"":10,""vid3"":10}";364.148;10;['4793_avoid', '5570_poke', '5096_approach'];5570_poke
7;2024-10-09;00:08:22;38;4;right;"{""vid1"":39,""vid2"":39,""vid3"":39}";1260.811;7;['5471_ignore', '5568_push', '4788_capture'];4788_capture
8;2024-10-09;00:07:33;37;8;left;"{""vid1"":38,""vid2"":38,""vid3"":38}";1150.133;8;['4806_flirt with', '5528_hug', '5901_huddle with'];4806_flirt with
9;2024-10-09;00:18:53;18;29;left;"{""vid1"":38,""vid2"":19,""vid3"":19}";611.674;9;['5471_ignore', '4793_avoid', '4789_bother'];5471_ignore
10;2024-10-09;00:23:22;10;24;right;"{""vid1"":11,""vid2"":11,""vid3"":11}";393.753;10;['5568_push', '6172_hit', '6058_leave'];6058_leave
8;2024-10-09;00:07:33;38;16;right;"{""vid1"":39,""vid2"":39,""vid3"":39}";1173.667;8;['6013_talk to', '5905_encircle', '1104_tickle'];1104_tickle
7;2024-10-09;00:08:22;39;25;middle;"{""vid1"":40,""vid2"":40,""vid3"":40}";1292.965;7;['4806_flirt with', '4793_avoid', '1104_tickle'];4793_avoid
8;2024-10-09;00:07:33;39;15;right;"{""vid1"":40,""vid2"":40,""vid3"":40}";1193.534;8;['5528_hug', '5901_huddle with', '5790_escape'];5790_escape
10;2024-10-09;00:23:22;11;21;left;"{""vid1"":24,""vid2"":24,""vid3"":12}";427.909;10;['6239_pull', '6172_hit', '1104_tickle'];6239_pull
8;2024-10-09;00:07:33;40;43;middle;"{""vid1"":41,""vid2"":41,""vid3"":41}";1206.184;8;['5528_hug', '6239_pull', '5901_huddle with'];6239_pull
9;2024-10-09;00:18:53;19;13;left;"{""vid1"":40,""vid2"":40,""vid3"":20}";653.689;9;['4926_lead', '6172_hit', '5905_encircle'];4926_lead
7;2024-10-09;00:08:22;40;36;left;"{""vid1"":41,""vid2"":41,""vid3"":41}";1326.196;7;['4793_avoid', '5096_approach', '5866_follow'];4793_avoid
8;2024-10-09;00:07:33;41;2;right;"{""vid1"":42,""vid2"":42,""vid3"":42}";1228.901;8;['6239_pull', '4789_bother', '1121_scratch'];1121_scratch
10;2024-10-09;00:23:22;12;11;right;"{""vid1"":26,""vid2"":13,""vid3"":13}";459.048;10;['6058_leave', '1051_herd', '6239_pull'];6239_pull
7;2024-10-09;00:08:22;41;29;right;"{""vid1"":42,""vid2"":42,""vid3"":42}";1346.89;7;['5471_ignore', '6026_fight', '4788_capture'];4788_capture
8;2024-10-09;00:07:33;42;25;middle;"{""vid1"":43,""vid2"":43,""vid3"":43}";1250.185;8;['5096_approach', '5528_hug', '6013_talk to'];5528_hug
10;2024-10-09;00:23:22;13;19;left;"{""vid1"":14,""vid2"":14,""vid3"":14}";482.348;10;['5866_follow', '4861_throw', '5790_escape'];5866_follow
9;2024-10-09;00:18:53;20;20;right;"{""vid1"":42,""vid2"":42,""vid3"":21}";704.145;9;['4806_flirt with', '5790_escape', '5876_creep up on'];5876_creep up on
7;2024-10-09;00:08:22;42;13;middle;"{""vid1"":43,""vid2"":43,""vid3"":43}";1380.535;7;['6172_hit', '5901_huddle with', '5096_approach'];5901_huddle with
8;2024-10-09;00:07:33;43;39;left;"{""vid1"":44,""vid2"":44,""vid3"":44}";1273.369;8;['6239_pull', '1104_tickle', '4861_throw'];6239_pull
9;2024-10-09;00:18:53;21;39;right;"{""vid1"":22,""vid2"":22,""vid3"":22}";723.095;9;['1104_tickle', '1167_kiss', '4861_throw'];4861_throw
10;2024-10-09;00:23:22;14;42;left;"{""vid1"":15,""vid2"":15,""vid3"":15}";508.195;10;['5471_ignore', '5905_encircle', '5570_poke'];5471_ignore
7;2024-10-09;00:08:22;43;16;middle;"{""vid1"":44,""vid2"":44,""vid3"":44}";1401.727;7;['5901_huddle with', '5905_encircle', '4926_lead'];5905_encircle
10;2024-10-09;00:23:22;15;4;right;"{""vid1"":16,""vid2"":16,""vid3"":16}";527.064;10;['6239_pull', '4793_avoid', '4861_throw'];4861_throw
8;2024-10-09;00:07:33;44;7;right;"{""vid1"":45,""vid2"":45,""vid3"":45}";1303.353;8;['4789_bother', '6172_hit', '5901_huddle with'];5901_huddle with
9;2024-10-09;00:18:53;22;41;left;"{""vid1"":23,""vid2"":23,""vid3"":23}";750.538;9;['6172_hit', '5096_approach', '5876_creep up on'];6172_hit
7;2024-10-09;00:08:22;44;2;middle;"{""vid1"":45,""vid2"":45,""vid3"":45}";1428.044;7;['5788_examine', '5901_huddle with', '6300_accompany'];5901_huddle with
10;2024-10-09;00:23:22;16;7;right;"{""vid1"":17,""vid2"":17,""vid3"":17}";554.588;10;['4926_lead', '6172_hit', '5876_creep up on'];5876_creep up on
9;2024-10-09;00:18:53;23;36;right;"{""vid1"":24,""vid2"":24,""vid3"":24}";777.001;9;['6172_hit', '5528_hug', '4793_avoid'];4793_avoid
9;2024-10-09;00:18:53;24;22;right;"{""vid1"":25,""vid2"":25,""vid3"":25}";793.116;9;['5528_hug', '4861_throw', '6013_talk to'];6013_talk to
10;2024-10-09;00:23:22;17;18;middle;"{""vid1"":18,""vid2"":18,""vid3"":18}";579.975;10;['1104_tickle', '6026_fight', '1051_herd'];6026_fight
10;2024-10-09;00:23:22;18;40;left;"{""vid1"":19,""vid2"":19,""vid3"":19}";603.294;10;['5528_hug', '4806_flirt with', '1104_tickle'];5528_hug
9;2024-10-09;00:18:53;25;7;left;"{""vid1"":26,""vid2"":26,""vid3"":52}";825.142;9;['5528_hug', '1051_herd', '6026_fight'];5528_hug
10;2024-10-09;00:23:22;19;0;right;"{""vid1"":20,""vid2"":20,""vid3"":20}";616.188;10;['4788_capture', '6058_leave', '5905_encircle'];5905_encircle
9;2024-10-09;00:18:53;26;44;middle;"{""vid1"":27,""vid2"":27,""vid3"":27}";851.31;9;['1051_herd', '5866_follow', '6026_fight'];5866_follow
9;2024-10-09;00:18:53;27;19;left;"{""vid1"":28,""vid2"":28,""vid3"":28}";865.471;9;['1121_scratch', '4861_throw', '4788_capture'];1121_scratch
10;2024-10-09;00:23:22;20;2;left;"{""vid1"":42,""vid2"":42,""vid3"":21}";657.758;10;['5866_follow', '6013_talk to', '5788_examine'];5866_follow
9;2024-10-09;00:18:53;28;5;left;"{""vid1"":29,""vid2"":58,""vid3"":29}";898.388;9;['4788_capture', '4806_flirt with', '1121_scratch'];4788_capture
10;2024-10-09;00:23:22;21;33;left;"{""vid1"":22,""vid2"":22,""vid3"":22}";688.222;10;['4926_lead', '5876_creep up on', '5866_follow'];4926_lead
10;2024-10-09;00:23:22;22;26;right;"{""vid1"":69,""vid2"":23,""vid3"":23}";708.755;10;['6239_pull', '6058_leave', '5471_ignore'];5471_ignore
9;2024-10-09;00:18:53;29;33;middle;"{""vid1"":60,""vid2"":30,""vid3"":30}";936.183;9;['4789_bother', '5866_follow', '5096_approach'];5866_follow
10;2024-10-09;00:23:22;23;31;right;"{""vid1"":24,""vid2"":24,""vid3"":24}";737.594;10;['1104_tickle', '6172_hit', '5790_escape'];5790_escape
9;2024-10-09;00:18:53;30;14;middle;"{""vid1"":31,""vid2"":31,""vid3"":31}";961.299;9;['5790_escape', '5096_approach', '4926_lead'];5096_approach
10;2024-10-09;00:23:22;24;8;middle;"{""vid1"":25,""vid2"":25,""vid3"":25}";759.968;10;['5876_creep up on', '4788_capture', '4789_bother'];4788_capture
9;2024-10-09;00:18:53;31;21;right;"{""vid1"":32,""vid2"":32,""vid3"":32}";981.966;9;['4926_lead', '1121_scratch', '5471_ignore'];5471_ignore
9;2024-10-09;00:18:53;32;18;middle;"{""vid1"":33,""vid2"":33,""vid3"":66}";1002.92;9;['5568_push', '5790_escape', '6239_pull'];5790_escape
9;2024-10-09;00:18:53;33;12;middle;"{""vid1"":34,""vid2"":34,""vid3"":34}";1021.761;9;['5570_poke', '5788_examine', '4788_capture'];5788_examine
9;2024-10-09;00:18:53;34;28;middle;"{""vid1"":70,""vid2"":35,""vid3"":35}";1040.477;9;['4788_capture', '6013_talk to', '6239_pull'];6013_talk to
10;2024-10-09;00:23:22;25;3;left;"{""vid1"":26,""vid2"":26,""vid3"":26}";825.97;10;['5901_huddle with', '4926_lead', '5866_follow'];5901_huddle with
9;2024-10-09;00:18:53;35;4;left;"{""vid1"":36,""vid2"":36,""vid3"":36}";1066.551;9;['4806_flirt with', '6058_leave', '6300_accompany'];4806_flirt with
10;2024-10-09;00:23:22;26;9;right;"{""vid1"":27,""vid2"":27,""vid3"":27}";857.026;10;['6058_leave', '4789_bother', '6172_hit'];6172_hit
9;2024-10-09;00:18:53;36;30;right;"{""vid1"":37,""vid2"":74,""vid3"":37}";1100.261;9;['4926_lead', '5876_creep up on', '4793_avoid'];4793_avoid
10;2024-10-09;00:23:22;27;32;left;"{""vid1"":28,""vid2"":28,""vid3"":28}";889.609;10;['5471_ignore', '5876_creep up on', '4861_throw'];5471_ignore
12;2024-10-09;00:17:42;0;26;middle;"{""vid1"":1,""vid2"":1,""vid3"":1}";31.274;12;['5790_escape', '5568_push', '4789_bother'];5568_push
10;2024-10-09;00:23:22;28;35;right;"{""vid1"":29,""vid2"":29,""vid3"":29}";911.097;10;['6013_talk to', '1121_scratch', '5096_approach'];5096_approach
9;2024-10-09;00:18:53;37;40;left;"{""vid1"":38,""vid2"":38,""vid3"":38}";1134.943;9;['4806_flirt with', '4793_avoid', '6300_accompany'];4806_flirt with
12;2024-10-09;00:17:42;1;44;right;"{""vid1"":2,""vid2"":4,""vid3"":2}";51.444;12;['5568_push', '5528_hug', '1121_scratch'];1121_scratch
10;2024-10-09;00:23:22;29;41;middle;"{""vid1"":30,""vid2"":30,""vid3"":30}";936.798;10;['6013_talk to', '5905_encircle', '4806_flirt with'];5905_encircle
12;2024-10-09;00:17:42;2;39;middle;"{""vid1"":3,""vid2"":3,""vid3"":3}";80.322;12;['1167_kiss', '6300_accompany', '5790_escape'];6300_accompany
9;2024-10-09;00:18:53;38;2;left;"{""vid1"":39,""vid2"":39,""vid3"":39}";1164.926;9;['5788_examine', '6026_fight', '1051_herd'];5788_examine
10;2024-10-09;00:23:22;30;17;right;"{""vid1"":62,""vid2"":31,""vid3"":31}";962.675;10;['4861_throw', '5876_creep up on', '6300_accompany'];6300_accompany
9;2024-10-09;00:18:53;39;3;right;"{""vid1"":40,""vid2"":40,""vid3"":40}";1189.888;9;['4861_throw', '5790_escape', '4789_bother'];4789_bother
12;2024-10-09;00:17:42;3;37;middle;"{""vid1"":4,""vid2"":4,""vid3"":4}";106.979;12;['5876_creep up on', '1051_herd', '6026_fight'];1051_herd
10;2024-10-09;00:23:22;31;15;left;"{""vid1"":32,""vid2"":32,""vid3"":32}";986.042;10;['6172_hit', '4926_lead', '4861_throw'];6172_hit
10;2024-10-09;00:23:22;32;28;middle;"{""vid1"":33,""vid2"":33,""vid3"":33}";1001.346;10;['6058_leave', '5471_ignore', '4861_throw'];5471_ignore
12;2024-10-09;00:17:42;4;4;middle;"{""vid1"":5,""vid2"":5,""vid3"":5}";142.497;12;['5788_examine', '6172_hit', '4806_flirt with'];6172_hit
10;2024-10-09;00:23:22;33;34;middle;"{""vid1"":34,""vid2"":34,""vid3"":34}";1021.371;10;['1104_tickle', '6026_fight', '5568_push'];6026_fight
12;2024-10-09;00:17:42;5;33;right;"{""vid1"":6,""vid2"":6,""vid3"":6}";168.377;12;['5096_approach', '6013_talk to', '5471_ignore'];5471_ignore
10;2024-10-09;00:23:22;34;13;middle;"{""vid1"":35,""vid2"":35,""vid3"":35}";1047.073;10;['4793_avoid', '1167_kiss', '5866_follow'];1167_kiss
12;2024-10-09;00:17:42;6;30;middle;"{""vid1"":7,""vid2"":7,""vid3"":7}";195.639;12;['6300_accompany', '5570_poke', '5790_escape'];5570_poke
10;2024-10-09;00:23:22;35;14;right;"{""vid1"":36,""vid2"":36,""vid3"":36}";1064.206;10;['1104_tickle', '5528_hug', '4926_lead'];4926_lead
10;2024-10-09;00:23:22;36;43;middle;"{""vid1"":37,""vid2"":37,""vid3"":37}";1083.471;10;['5866_follow', '6026_fight', '6239_pull'];6026_fight
12;2024-10-09;00:17:42;7;11;right;"{""vid1"":8,""vid2"":8,""vid3"":8}";220.417;12;['6239_pull', '1121_scratch', '6172_hit'];6172_hit
10;2024-10-09;00:23:22;37;5;left;"{""vid1"":38,""vid2"":38,""vid3"":38}";1102.882;10;['5905_encircle', '5471_ignore', '6058_leave'];5905_encircle
9;2024-10-09;00:18:53;40;23;middle;"{""vid1"":82,""vid2"":82,""vid3"":82}";1322.487;9;['5568_push', '5471_ignore', '1167_kiss'];5471_ignore
12;2024-10-09;00:17:42;8;36;middle;"{""vid1"":9,""vid2"":9,""vid3"":9}";242.502;12;['1121_scratch', '4861_throw', '5096_approach'];4861_throw
9;2024-10-09;00:18:53;41;34;middle;"{""vid1"":42,""vid2"":42,""vid3"":42}";1344.242;9;['6300_accompany', '5528_hug', '1104_tickle'];5528_hug
10;2024-10-09;00:23:22;38;44;middle;"{""vid1"":39,""vid2"":39,""vid3"":39}";1130.099;10;['6172_hit', '5788_examine', '4861_throw'];5788_examine
12;2024-10-09;00:17:42;9;35;left;"{""vid1"":10,""vid2"":10,""vid3"":10}";279.391;12;['4793_avoid', '5096_approach', '1051_herd'];4793_avoid
10;2024-10-09;00:23:22;39;27;middle;"{""vid1"":40,""vid2"":40,""vid3"":40}";1150.342;10;['4861_throw', '5570_poke', '4793_avoid'];5570_poke
9;2024-10-09;00:18:53;42;15;left;"{""vid1"":86,""vid2"":86,""vid3"":86}";1380.426;9;['6058_leave', '5876_creep up on', '5096_approach'];6058_leave
12;2024-10-09;00:17:42;10;14;middle;"{""vid1"":11,""vid2"":11,""vid3"":11}";305.141;12;['5866_follow', '4789_bother', '5570_poke'];4789_bother
10;2024-10-09;00:23:22;40;25;middle;"{""vid1"":41,""vid2"":41,""vid3"":41}";1172.224;10;['4793_avoid', '5471_ignore', '6058_leave'];5471_ignore
10;2024-10-09;00:23:22;41;36;right;"{""vid1"":42,""vid2"":42,""vid3"":42}";1190.436;10;['5096_approach', '6239_pull', '5905_encircle'];5905_encircle
9;2024-10-09;00:18:53;43;32;middle;"{""vid1"":88,""vid2"":44,""vid3"":44}";1416.933;9;['6172_hit', '5471_ignore', '6239_pull'];5471_ignore
12;2024-10-09;00:17:42;11;32;middle;"{""vid1"":12,""vid2"":12,""vid3"":12}";334.435;12;['1167_kiss', '5866_follow', '6058_leave'];5866_follow
10;2024-10-09;00:23:22;42;10;left;"{""vid1"":43,""vid2"":43,""vid3"":43}";1207.622;10;['5901_huddle with', '5866_follow', '5570_poke'];5901_huddle with
9;2024-10-09;00:18:53;44;11;middle;"{""vid1"":45,""vid2"":45,""vid3"":45}";1434.962;9;['1121_scratch', '4788_capture', '1167_kiss'];4788_capture
10;2024-10-09;00:23:22;43;37;right;"{""vid1"":44,""vid2"":44,""vid3"":44}";1222.315;10;['5570_poke', '6058_leave', '4926_lead'];4926_lead
12;2024-10-09;00:17:42;12;24;middle;"{""vid1"":13,""vid2"":13,""vid3"":13}";359.604;12;['5876_creep up on', '5905_encircle', '4793_avoid'];5905_encircle
10;2024-10-09;00:23:22;44;12;left;"{""vid1"":45,""vid2"":45,""vid3"":45}";1237.799;10;['5905_encircle', '5570_poke', '1121_scratch'];5905_encircle
12;2024-10-09;00:17:42;13;16;right;"{""vid1"":14,""vid2"":14,""vid3"":14}";377.164;12;['4861_throw', '5528_hug', '6300_accompany'];6300_accompany
12;2024-10-09;00:17:42;14;22;middle;"{""vid1"":15,""vid2"":15,""vid3"":15}";396.713;12;['6058_leave', '6013_talk to', '5876_creep up on'];6013_talk to
12;2024-10-09;00:17:42;15;7;middle;"{""vid1"":16,""vid2"":16,""vid3"":16}";418.622;12;['5905_encircle', '6058_leave', '4789_bother'];6058_leave
12;2024-10-09;00:17:42;16;15;middle;"{""vid1"":17,""vid2"":17,""vid3"":17}";435.992;12;['5471_ignore', '1121_scratch', '5570_poke'];1121_scratch
12;2024-10-09;00:17:42;17;10;left;"{""vid1"":18,""vid2"":18,""vid3"":18}";467.74;12;['5788_examine', '4793_avoid', '6013_talk to'];5788_examine
12;2024-10-09;00:17:42;18;12;right;"{""vid1"":19,""vid2"":19,""vid3"":19}";490.894;12;['4926_lead', '5568_push', '5788_examine'];5788_examine
12;2024-10-09;00:17:42;19;25;left;"{""vid1"":20,""vid2"":20,""vid3"":20}";514.605;12;['1051_herd', '5901_huddle with', '5096_approach'];1051_herd
12;2024-10-09;00:17:42;20;9;middle;"{""vid1"":21,""vid2"":21,""vid3"":21}";534.102;12;['5570_poke', '5901_huddle with', '5471_ignore'];5901_huddle with
12;2024-10-09;00:17:42;21;42;middle;"{""vid1"":22,""vid2"":22,""vid3"":22}";557.321;12;['5790_escape', '5471_ignore', '5901_huddle with'];5471_ignore
12;2024-10-09;00:17:42;22;2;left;"{""vid1"":23,""vid2"":23,""vid3"":23}";579.34;12;['5471_ignore', '5570_poke', '6026_fight'];5471_ignore
12;2024-10-09;00:17:42;23;28;middle;"{""vid1"":24,""vid2"":24,""vid3"":24}";596.187;12;['5570_poke', '4861_throw', '4788_capture'];4861_throw
12;2024-10-09;00:17:42;24;17;middle;"{""vid1"":25,""vid2"":25,""vid3"":25}";648.132;12;['6058_leave', '5570_poke', '4861_throw'];5570_poke
12;2024-10-09;00:17:42;25;29;middle;"{""vid1"":26,""vid2"":26,""vid3"":26}";673.719;12;['1051_herd', '6300_accompany', '5570_poke'];6300_accompany
12;2024-10-09;00:17:42;26;43;middle;"{""vid1"":27,""vid2"":27,""vid3"":27}";702.466;12;['6300_accompany', '4806_flirt with', '5901_huddle with'];4806_flirt with
12;2024-10-09;00:17:42;27;3;middle;"{""vid1"":28,""vid2"":28,""vid3"":28}";719.061;12;['5905_encircle', '5901_huddle with', '6058_leave'];5901_huddle with
12;2024-10-09;00:17:42;28;40;middle;"{""vid1"":29,""vid2"":29,""vid3"":29}";739.996;12;['4861_throw', '5790_escape', '5471_ignore'];5790_escape
12;2024-10-09;00:17:42;29;1;right;"{""vid1"":30,""vid2"":30,""vid3"":30}";755.883;12;['4788_capture', '5905_encircle', '4926_lead'];4926_lead
12;2024-10-09;00:17:42;30;6;middle;"{""vid1"":31,""vid2"":31,""vid3"":31}";778.674;12;['6013_talk to', '5901_huddle with', '5866_follow'];5901_huddle with
12;2024-10-09;00:17:42;31;34;middle;"{""vid1"":32,""vid2"":32,""vid3"":32}";804.587;12;['5788_examine', '1051_herd', '1121_scratch'];1051_herd
12;2024-10-09;00:17:42;32;8;right;"{""vid1"":33,""vid2"":33,""vid3"":33}";827.362;12;['5471_ignore', '4788_capture', '6300_accompany'];6300_accompany
12;2024-10-09;00:17:42;33;31;right;"{""vid1"":34,""vid2"":34,""vid3"":34}";852.158;12;['4861_throw', '5788_examine', '6026_fight'];6026_fight
12;2024-10-09;00:17:42;34;5;middle;"{""vid1"":35,""vid2"":35,""vid3"":35}";887.236;12;['5471_ignore', '5570_poke', '5528_hug'];5570_poke
12;2024-10-09;00:17:42;35;19;left;"{""vid1"":36,""vid2"":36,""vid3"":36}";913.28;12;['6026_fight', '4788_capture', '4926_lead'];6026_fight
12;2024-10-09;00:17:42;36;41;middle;"{""vid1"":37,""vid2"":37,""vid3"":37}";926.945;12;['4861_throw', '6239_pull', '5876_creep up on'];6239_pull
12;2024-10-09;00:17:42;37;18;middle;"{""vid1"":38,""vid2"":38,""vid3"":38}";963.144;12;['6172_hit', '4789_bother', '6013_talk to'];4789_bother
12;2024-10-09;00:17:42;38;13;middle;"{""vid1"":39,""vid2"":39,""vid3"":39}";995.12;12;['4861_throw', '4926_lead', '4806_flirt with'];4926_lead
12;2024-10-09;00:17:42;39;20;left;"{""vid1"":40,""vid2"":40,""vid3"":40}";1015.152;12;['5905_encircle', '4926_lead', '5866_follow'];5905_encircle
12;2024-10-09;00:17:42;40;23;right;"{""vid1"":41,""vid2"":41,""vid3"":41}";1026.634;12;['4861_throw', '5568_push', '6058_leave'];6058_leave
12;2024-10-09;00:17:42;41;21;middle;"{""vid1"":42,""vid2"":42,""vid3"":42}";1044.957;12;['5876_creep up on', '1104_tickle', '6058_leave'];1104_tickle
12;2024-10-09;00:17:42;42;0;middle;"{""vid1"":43,""vid2"":43,""vid3"":43}";1066.076;12;['5528_hug', '4793_avoid', '4861_throw'];4793_avoid
12;2024-10-09;00:17:42;43;27;middle;"{""vid1"":44,""vid2"":44,""vid3"":44}";1086.056;12;['5905_encircle', '5790_escape', '4788_capture'];5790_escape
12;2024-10-09;00:17:42;44;38;right;"{""vid1"":45,""vid2"":45,""vid3"":45}";1110.577;12;['1167_kiss', '5905_encircle', '1051_herd'];1051_herd
14;2024-10-09;00:58:01;0;30;right;"{""vid1"":1,""vid2"":1,""vid3"":2}";32.805;14;['5788_examine', '6026_fight', '5876_creep up on'];5876_creep up on
14;2024-10-09;00:58:01;1;34;middle;"{""vid1"":2,""vid2"":4,""vid3"":2}";62.776;14;['5876_creep up on', '1051_herd', '6239_pull'];1051_herd
14;2024-10-09;00:58:01;2;16;middle;"{""vid1"":3,""vid2"":3,""vid3"":3}";103.512;14;['4806_flirt with', '5790_escape', '5570_poke'];5790_escape
14;2024-10-09;00:58:01;3;12;right;"{""vid1"":4,""vid2"":4,""vid3"":4}";130.578;14;['5876_creep up on', '4926_lead', '5096_approach'];5096_approach
14;2024-10-09;00:58:01;4;21;right;"{""vid1"":5,""vid2"":5,""vid3"":10}";151.722;14;['4788_capture', '5528_hug', '1104_tickle'];1104_tickle
14;2024-10-09;00:58:01;5;44;right;"{""vid1"":6,""vid2"":6,""vid3"":6}";188.561;14;['6300_accompany', '1051_herd', '5876_creep up on'];5876_creep up on
14;2024-10-09;00:58:01;6;14;right;"{""vid1"":7,""vid2"":7,""vid3"":7}";267.651;14;['4793_avoid', '4926_lead', '4789_bother'];4789_bother
14;2024-10-09;00:58:01;7;0;left;"{""vid1"":8,""vid2"":8,""vid3"":8}";339.716;14;['5905_encircle', '1167_kiss', '5528_hug'];5905_encircle
15;2024-10-09;01:03:49;0;21;middle;"{""vid1"":1,""vid2"":1,""vid3"":1}";17.839;15;['6026_fight', '5528_hug', '6239_pull'];5528_hug
15;2024-10-09;01:03:49;1;10;right;"{""vid1"":2,""vid2"":2,""vid3"":2}";42.844;15;['5471_ignore', '4793_avoid', '1121_scratch'];1121_scratch
15;2024-10-09;01:03:49;2;40;middle;"{""vid1"":3,""vid2"":3,""vid3"":3}";67.742;15;['6013_talk to', '6300_accompany', '1121_scratch'];6300_accompany
15;2024-10-09;01:03:49;3;27;left;"{""vid1"":8,""vid2"":4,""vid3"":4}";93.263;15;['4788_capture', '5471_ignore', '4789_bother'];4788_capture
14;2024-10-09;00:58:01;8;4;left;"{""vid1"":9,""vid2"":27,""vid3"":27}";453.124;14;['5096_approach', '4926_lead', '1104_tickle'];5096_approach
15;2024-10-09;01:03:49;4;4;middle;"{""vid1"":5,""vid2"":5,""vid3"":5}";115.443;15;['5788_examine', '5528_hug', '5096_approach'];5528_hug
15;2024-10-09;01:03:49;5;14;middle;"{""vid1"":6,""vid2"":6,""vid3"":6}";136.122;15;['5790_escape', '4788_capture', '5866_follow'];4788_capture
14;2024-10-09;00:58:01;9;40;right;"{""vid1"":10,""vid2"":20,""vid3"":20}";508.291;14;['1104_tickle', '4806_flirt with', '5096_approach'];5096_approach
15;2024-10-09;01:03:49;6;8;left;"{""vid1"":14,""vid2"":7,""vid3"":7}";164.434;15;['5570_poke', '4861_throw', '1167_kiss'];5570_poke
14;2024-10-09;00:58:01;10;38;right;"{""vid1"":11,""vid2"":11,""vid3"":11}";535.183;14;['6013_talk to', '6172_hit', '4861_throw'];4861_throw
15;2024-10-09;01:03:49;7;37;middle;"{""vid1"":8,""vid2"":8,""vid3"":8}";186.798;15;['6172_hit', '5096_approach', '6239_pull'];5096_approach
14;2024-10-09;00:58:01;11;37;right;"{""vid1"":12,""vid2"":12,""vid3"":12}";560.535;14;['6172_hit', '5471_ignore', '5568_push'];5568_push
15;2024-10-09;01:03:49;8;18;right;"{""vid1"":9,""vid2"":9,""vid3"":9}";208.123;15;['1167_kiss', '6013_talk to', '1121_scratch'];1121_scratch
15;2024-10-09;01:03:49;9;0;left;"{""vid1"":10,""vid2"":10,""vid3"":10}";233.831;15;['4789_bother', '5905_encircle', '5471_ignore'];4789_bother
14;2024-10-09;00:58:01;12;43;right;"{""vid1"":13,""vid2"":13,""vid3"":13}";604.95;14;['6239_pull', '5876_creep up on', '6172_hit'];6172_hit
15;2024-10-09;01:03:49;10;24;right;"{""vid1"":11,""vid2"":11,""vid3"":11}";252.846;15;['5876_creep up on', '6058_leave', '5471_ignore'];5471_ignore
15;2024-10-09;01:03:49;11;38;left;"{""vid1"":12,""vid2"":12,""vid3"":12}";274.578;15;['6300_accompany', '4788_capture', '1167_kiss'];6300_accompany
15;2024-10-09;01:03:49;12;1;right;"{""vid1"":13,""vid2"":13,""vid3"":13}";292.507;15;['6058_leave', '5096_approach', '1167_kiss'];1167_kiss
15;2024-10-09;01:03:49;13;5;left;"{""vid1"":14,""vid2"":14,""vid3"":14}";307.864;15;['1121_scratch', '4861_throw', '5568_push'];1121_scratch
15;2024-10-09;01:03:49;14;42;left;"{""vid1"":30,""vid2"":30,""vid3"":15}";342.942;15;['5096_approach', '5570_poke', '6172_hit'];5096_approach
15;2024-10-09;01:03:49;15;30;left;"{""vid1"":16,""vid2"":16,""vid3"":16}";377.962;15;['5570_poke', '5788_examine', '4789_bother'];5570_poke
15;2024-10-09;01:03:49;16;15;right;"{""vid1"":17,""vid2"":17,""vid3"":17}";402.579;15;['5528_hug', '1051_herd', '5866_follow'];5866_follow
15;2024-10-09;01:03:49;17;20;middle;"{""vid1"":18,""vid2"":18,""vid3"":18}";443.392;15;['5096_approach', '5905_encircle', '1051_herd'];5905_encircle
15;2024-10-09;01:03:49;18;31;middle;"{""vid1"":19,""vid2"":19,""vid3"":19}";477.388;15;['4789_bother', '5790_escape', '6172_hit'];5790_escape
16;2024-10-09;01:09:46;0;37;middle;"{""vid1"":1,""vid2"":1,""vid3"":1}";16.319;16;['4861_throw', '4926_lead', '1121_scratch'];4926_lead
15;2024-10-09;01:03:49;19;39;middle;"{""vid1"":20,""vid2"":20,""vid3"":20}";503.769;15;['1167_kiss', '1051_herd', '6013_talk to'];1051_herd
16;2024-10-09;01:09:46;1;3;middle;"{""vid1"":2,""vid2"":2,""vid3"":2}";32.814;16;['5788_examine', '4788_capture', '5528_hug'];4788_capture
15;2024-10-09;01:03:49;20;16;right;"{""vid1"":21,""vid2"":21,""vid3"":21}";533.642;15;['4806_flirt with', '1051_herd', '4926_lead'];4926_lead
14;2024-10-09;00:58:01;13;23;right;"{""vid1"":14,""vid2"":14,""vid3"":14}";909.936;14;['6300_accompany', '1121_scratch', '1104_tickle'];1104_tickle
15;2024-10-09;01:03:49;21;17;right;"{""vid1"":22,""vid2"":22,""vid3"":22}";551.47;15;['5471_ignore', '4788_capture', '1104_tickle'];1104_tickle
14;2024-10-09;00:58:01;14;7;left;"{""vid1"":30,""vid2"":15,""vid3"":15}";929.495;14;['5905_encircle', '5528_hug', '4861_throw'];5905_encircle
15;2024-10-09;01:03:49;22;3;middle;"{""vid1"":23,""vid2"":23,""vid3"":23}";574.471;15;['1051_herd', '5790_escape', '6239_pull'];5790_escape
14;2024-10-09;00:58:01;15;9;right;"{""vid1"":16,""vid2"":16,""vid3"":16}";948.059;14;['5471_ignore', '4926_lead', '5570_poke'];5570_poke
15;2024-10-09;01:03:49;23;33;right;"{""vid1"":24,""vid2"":24,""vid3"":24}";596.805;15;['5471_ignore', '6058_leave', '6172_hit'];6172_hit
14;2024-10-09;00:58:01;16;5;left;"{""vid1"":34,""vid2"":17,""vid3"":17}";974.001;14;['5905_encircle', '1167_kiss', '5568_push'];5905_encircle
15;2024-10-09;01:03:49;24;41;middle;"{""vid1"":25,""vid2"":25,""vid3"":25}";615.904;15;['6300_accompany', '5568_push', '6058_leave'];5568_push
16;2024-10-09;01:09:46;2;38;right;"{""vid1"":6,""vid2"":3,""vid3"":3}";144.705;16;['1121_scratch', '5876_creep up on', '6026_fight'];6026_fight
14;2024-10-09;00:58:01;17;2;right;"{""vid1"":18,""vid2"":18,""vid3"":18}";999.48;14;['4788_capture', '4806_flirt with', '1051_herd'];1051_herd
15;2024-10-09;01:03:49;25;7;middle;"{""vid1"":26,""vid2"":26,""vid3"":26}";644.714;15;['4789_bother', '6239_pull', '1051_herd'];6239_pull
14;2024-10-09;00:58:01;18;11;middle;"{""vid1"":19,""vid2"":38,""vid3"":19}";1012.416;14;['6239_pull', '5570_poke', '6058_leave'];5570_poke
15;2024-10-09;01:03:49;26;26;left;"{""vid1"":27,""vid2"":27,""vid3"":27}";665.701;15;['6058_leave', '5866_follow', '5096_approach'];6058_leave
14;2024-10-09;00:58:01;19;6;right;"{""vid1"":20,""vid2"":20,""vid3"":20}";1038.679;14;['4861_throw', '4806_flirt with', '5471_ignore'];5471_ignore
15;2024-10-09;01:03:49;27;43;right;"{""vid1"":28,""vid2"":28,""vid3"":28}";682.09;15;['4926_lead', '5905_encircle', '5528_hug'];5528_hug
14;2024-10-09;00:58:01;20;19;right;"{""vid1"":21,""vid2"":21,""vid3"":21}";1057.535;14;['6300_accompany', '5905_encircle', '5528_hug'];5528_hug
15;2024-10-09;01:03:49;28;44;right;"{""vid1"":29,""vid2"":29,""vid3"":29}";700.853;15;['4788_capture', '5788_examine', '6239_pull'];6239_pull
14;2024-10-09;00:58:01;21;13;left;"{""vid1"":22,""vid2"":22,""vid3"":22}";1070.718;14;['1121_scratch', '5901_huddle with', '5528_hug'];1121_scratch
14;2024-10-09;00:58:01;22;39;left;"{""vid1"":23,""vid2"":23,""vid3"":23}";1086.816;14;['4793_avoid', '5528_hug', '6058_leave'];4793_avoid
15;2024-10-09;01:03:49;29;23;middle;"{""vid1"":30,""vid2"":30,""vid3"":30}";728.381;15;['6058_leave', '4789_bother', '4793_avoid'];4789_bother
16;2024-10-09;01:09:46;3;16;left;"{""vid1"":12,""vid2"":4,""vid3"":4}";263.852;16;['5901_huddle with', '6026_fight', '5790_escape'];5901_huddle with
14;2024-10-09;00:58:01;23;15;right;"{""vid1"":24,""vid2"":24,""vid3"":24}";1109.815;14;['6300_accompany', '1167_kiss', '5905_encircle'];5905_encircle
15;2024-10-09;01:03:49;30;13;right;"{""vid1"":31,""vid2"":31,""vid3"":31}";752.169;15;['6013_talk to', '5570_poke', '5790_escape'];5790_escape
16;2024-10-09;01:09:46;4;11;right;"{""vid1"":5,""vid2"":5,""vid3"":5}";284.997;16;['5471_ignore', '5876_creep up on', '4926_lead'];4926_lead
15;2024-10-09;01:03:49;31;12;left;"{""vid1"":32,""vid2"":32,""vid3"":32}";770.623;15;['1121_scratch', '1051_herd', '6058_leave'];1121_scratch
14;2024-10-09;00:58:01;24;28;left;"{""vid1"":25,""vid2"":25,""vid3"":25}";1138.52;14;['5905_encircle', '1051_herd', '6300_accompany'];5905_encircle
15;2024-10-09;01:03:49;32;35;right;"{""vid1"":33,""vid2"":33,""vid3"":33}";785.775;15;['5471_ignore', '5905_encircle', '5528_hug'];5528_hug
16;2024-10-09;01:09:46;5;44;left;"{""vid1"":6,""vid2"":6,""vid3"":6}";315.715;16;['6026_fight', '6300_accompany', '5096_approach'];6026_fight
14;2024-10-09;00:58:01;25;36;right;"{""vid1"":26,""vid2"":26,""vid3"":26}";1166.339;14;['1167_kiss', '6013_talk to', '5096_approach'];5096_approach
15;2024-10-09;01:03:49;33;36;right;"{""vid1"":34,""vid2"":34,""vid3"":34}";813.82;15;['4806_flirt with', '6300_accompany', '5866_follow'];5866_follow
16;2024-10-09;01:09:46;6;32;right;"{""vid1"":14,""vid2"":7,""vid3"":7}";357.441;16;['4793_avoid', '1051_herd', '5790_escape'];5790_escape
14;2024-10-09;00:58:01;26;1;right;"{""vid1"":27,""vid2"":27,""vid3"":27}";1192.75;14;['5788_examine', '1121_scratch', '4926_lead'];4926_lead
15;2024-10-09;01:03:49;34;28;right;"{""vid1"":35,""vid2"":35,""vid3"":35}";834.216;15;['4788_capture', '1051_herd', '1104_tickle'];1104_tickle
16;2024-10-09;01:09:46;7;35;left;"{""vid1"":8,""vid2"":8,""vid3"":8}";377.547;16;['5876_creep up on', '5471_ignore', '5905_encircle'];5876_creep up on
15;2024-10-09;01:03:49;35;22;middle;"{""vid1"":36,""vid2"":36,""vid3"":36}";853.862;15;['5568_push', '4806_flirt with', '4788_capture'];4806_flirt with
14;2024-10-09;00:58:01;27;33;right;"{""vid1"":28,""vid2"":28,""vid3"":28}";1223.151;14;['4789_bother', '5790_escape', '5905_encircle'];5905_encircle
15;2024-10-09;01:03:49;36;11;right;"{""vid1"":37,""vid2"":37,""vid3"":37}";871.527;15;['5866_follow', '5570_poke', '5876_creep up on'];5876_creep up on
16;2024-10-09;01:09:46;8;43;right;"{""vid1"":9,""vid2"":9,""vid3"":9}";400.325;16;['4788_capture', '5570_poke', '5790_escape'];5790_escape
16;2024-10-09;01:09:46;9;17;left;"{""vid1"":10,""vid2"":10,""vid3"":10}";423.477;16;['5471_ignore', '4793_avoid', '5528_hug'];5471_ignore
14;2024-10-09;00:58:01;28;18;left;"{""vid1"":29,""vid2"":58,""vid3"":29}";1257.918;14;['5471_ignore', '5905_encircle', '5901_huddle with'];5471_ignore
15;2024-10-09;01:03:49;37;2;middle;"{""vid1"":38,""vid2"":38,""vid3"":38}";901.47;15;['5866_follow', '4806_flirt with', '4793_avoid'];4806_flirt with
15;2024-10-09;01:03:49;38;19;right;"{""vid1"":39,""vid2"":39,""vid3"":39}";919.053;15;['5901_huddle with', '6058_leave', '6013_talk to'];6013_talk to
14;2024-10-09;00:58:01;29;32;right;"{""vid1"":30,""vid2"":30,""vid3"":30}";1290.914;14;['6300_accompany', '4793_avoid', '4926_lead'];4926_lead
16;2024-10-09;01:09:46;10;42;middle;"{""vid1"":22,""vid2"":22,""vid3"":11}";464.496;16;['4793_avoid', '5901_huddle with', '1104_tickle'];5901_huddle with
15;2024-10-09;01:03:49;39;34;left;"{""vid1"":40,""vid2"":40,""vid3"":40}";941.772;15;['4861_throw', '6172_hit', '5471_ignore'];4861_throw
16;2024-10-09;01:09:46;11;0;left;"{""vid1"":12,""vid2"":12,""vid3"":12}";479.087;16;['5905_encircle', '5901_huddle with', '5528_hug'];5905_encircle
15;2024-10-09;01:03:49;40;29;left;"{""vid1"":41,""vid2"":41,""vid3"":41}";959.699;15;['5788_examine', '6239_pull', '6058_leave'];5788_examine
14;2024-10-09;00:58:01;30;10;left;"{""vid1"":31,""vid2"":31,""vid3"":31}";1333.616;14;['5568_push', '6172_hit', '5905_encircle'];5568_push
16;2024-10-09;01:09:46;12;36;middle;"{""vid1"":26,""vid2"":13,""vid3"":13}";510.837;16;['5471_ignore', '6026_fight', '1051_herd'];6026_fight
15;2024-10-09;01:03:49;41;9;middle;"{""vid1"":42,""vid2"":42,""vid3"":42}";988.463;15;['5876_creep up on', '6300_accompany', '1104_tickle'];6300_accompany
16;2024-10-09;01:09:46;13;9;left;"{""vid1"":14,""vid2"":14,""vid3"":14}";527.431;16;['6026_fight', '5901_huddle with', '5528_hug'];6026_fight
16;2024-10-09;01:09:46;14;28;right;"{""vid1"":15,""vid2"":15,""vid3"":15}";536.362;16;['4861_throw', '6058_leave', '6239_pull'];6239_pull
14;2024-10-09;00:58:01;31;41;left;"{""vid1"":32,""vid2"":32,""vid3"":32}";1376.261;14;['5790_escape', '4793_avoid', '6300_accompany'];5790_escape
15;2024-10-09;01:03:49;42;6;middle;"{""vid1"":43,""vid2"":43,""vid3"":43}";1017.01;15;['5790_escape', '5876_creep up on', '6172_hit'];5876_creep up on
16;2024-10-09;01:09:46;15;23;middle;"{""vid1"":16,""vid2"":16,""vid3"":16}";560.423;16;['5096_approach', '5790_escape', '1167_kiss'];5790_escape
15;2024-10-09;01:03:49;43;32;middle;"{""vid1"":44,""vid2"":44,""vid3"":44}";1048.181;15;['6172_hit', '4806_flirt with', '5471_ignore'];4806_flirt with
16;2024-10-09;01:09:46;16;6;right;"{""vid1"":17,""vid2"":17,""vid3"":17}";583.879;16;['4789_bother', '4861_throw', '6026_fight'];6026_fight
15;2024-10-09;01:03:49;44;25;middle;"{""vid1"":45,""vid2"":45,""vid3"":45}";1064.508;15;['4861_throw', '6013_talk to', '5570_poke'];6013_talk to
16;2024-10-09;01:09:46;17;40;right;"{""vid1"":18,""vid2"":18,""vid3"":18}";611.271;16;['5096_approach', '6026_fight', '4789_bother'];4789_bother
14;2024-10-09;00:58:01;32;8;left;"{""vid1"":33,""vid2"":66,""vid3"":66}";1443.406;14;['4793_avoid', '5096_approach', '5568_push'];4793_avoid
14;2024-10-09;00:58:01;33;24;left;"{""vid1"":34,""vid2"":68,""vid3"":34}";1481.046;14;['6026_fight', '5866_follow', '5876_creep up on'];6026_fight
16;2024-10-09;01:09:46;18;41;right;"{""vid1"":19,""vid2"":19,""vid3"":19}";650.812;16;['5788_examine', '4806_flirt with', '1167_kiss'];1167_kiss
14;2024-10-09;00:58:01;34;31;right;"{""vid1"":35,""vid2"":35,""vid3"":35}";1506.471;14;['4861_throw', '4793_avoid', '5790_escape'];5790_escape
16;2024-10-09;01:09:46;19;13;middle;"{""vid1"":20,""vid2"":20,""vid3"":20}";687.085;16;['6300_accompany', '1051_herd', '4793_avoid'];1051_herd
14;2024-10-09;00:58:01;35;20;middle;"{""vid1"":36,""vid2"":36,""vid3"":36}";1532.226;14;['5788_examine', '5901_huddle with', '4926_lead'];5901_huddle with
16;2024-10-09;01:09:46;20;31;right;"{""vid1"":21,""vid2"":21,""vid3"":21}";700.33;16;['5905_encircle', '5570_poke', '4861_throw'];4861_throw
16;2024-10-09;01:09:46;21;29;middle;"{""vid1"":44,""vid2"":22,""vid3"":22}";726.209;16;['5570_poke', '6013_talk to', '6026_fight'];6013_talk to
14;2024-10-09;00:58:01;36;26;left;"{""vid1"":37,""vid2"":37,""vid3"":37}";1559.446;14;['1104_tickle', '6013_talk to', '4806_flirt with'];1104_tickle
14;2024-10-09;00:58:01;37;17;right;"{""vid1"":38,""vid2"":38,""vid3"":38}";1573.819;14;['5905_encircle', '5570_poke', '5568_push'];5568_push
16;2024-10-09;01:09:46;22;18;right;"{""vid1"":23,""vid2"":23,""vid3"":23}";745.424;16;['5901_huddle with', '5876_creep up on', '5570_poke'];5570_poke
16;2024-10-09;01:09:46;23;39;right;"{""vid1"":24,""vid2"":24,""vid3"":24}";763.196;16;['5570_poke', '5790_escape', '5528_hug'];5528_hug
14;2024-10-09;00:58:01;38;25;left;"{""vid1"":39,""vid2"":39,""vid3"":39}";1598.3;14;['6300_accompany', '1167_kiss', '1104_tickle'];6300_accompany
16;2024-10-09;01:09:46;24;12;right;"{""vid1"":25,""vid2"":25,""vid3"":25}";779.28;16;['5905_encircle', '5866_follow', '5570_poke'];5570_poke
14;2024-10-09;00:58:01;39;27;middle;"{""vid1"":40,""vid2"":40,""vid3"":40}";1611.954;14;['5901_huddle with', '6239_pull', '5568_push'];6239_pull
14;2024-10-09;00:58:01;40;35;right;"{""vid1"":41,""vid2"":41,""vid3"":41}";1632.87;14;['5471_ignore', '6239_pull', '4806_flirt with'];4806_flirt with
14;2024-10-09;00:58:01;41;29;right;"{""vid1"":42,""vid2"":42,""vid3"":42}";1657.946;14;['5876_creep up on', '1167_kiss', '5790_escape'];5790_escape
14;2024-10-09;00:58:01;42;3;left;"{""vid1"":86,""vid2"":43,""vid3"":43}";1686.059;14;['5096_approach', '6058_leave', '5788_examine'];5096_approach
16;2024-10-09;01:09:46;25;26;right;"{""vid1"":52,""vid2"":52,""vid3"":26}";860.017;16;['4793_avoid', '4789_bother', '6026_fight'];6026_fight
14;2024-10-09;00:58:01;43;42;right;"{""vid1"":44,""vid2"":44,""vid3"":44}";1710.477;14;['6172_hit', '5901_huddle with', '4926_lead'];4926_lead
16;2024-10-09;01:09:46;26;33;left;"{""vid1"":27,""vid2"":27,""vid3"":27}";888.703;16;['6026_fight', '4789_bother', '6013_talk to'];6026_fight
14;2024-10-09;00:58:01;44;22;right;"{""vid1"":45,""vid2"":45,""vid3"":45}";1740.444;14;['5866_follow', '4789_bother', '1051_herd'];1051_herd
16;2024-10-09;01:09:46;27;14;left;"{""vid1"":28,""vid2"":28,""vid3"":28}";910.483;16;['6058_leave', '1167_kiss', '4806_flirt with'];6058_leave
16;2024-10-09;01:09:46;28;34;middle;"{""vid1"":29,""vid2"":29,""vid3"":29}";933.521;16;['6058_leave', '1051_herd', '5790_escape'];1051_herd
16;2024-10-09;01:09:46;29;5;right;"{""vid1"":30,""vid2"":30,""vid3"":30}";1029.206;16;['1104_tickle', '5570_poke', '5866_follow'];5866_follow
16;2024-10-09;01:09:46;30;22;right;"{""vid1"":31,""vid2"":31,""vid3"":31}";1053.193;16;['6026_fight', '4793_avoid', '6239_pull'];6239_pull
16;2024-10-09;01:09:46;31;25;right;"{""vid1"":32,""vid2"":32,""vid3"":32}";1080.671;16;['5788_examine', '5096_approach', '5901_huddle with'];5901_huddle with
16;2024-10-09;01:09:46;32;24;right;"{""vid1"":33,""vid2"":33,""vid3"":33}";1101.314;16;['4789_bother', '5568_push', '5570_poke'];5570_poke
16;2024-10-09;01:09:46;33;21;left;"{""vid1"":34,""vid2"":34,""vid3"":34}";1118.585;16;['4788_capture', '5096_approach', '5876_creep up on'];4788_capture
16;2024-10-09;01:09:46;34;4;right;"{""vid1"":70,""vid2"":35,""vid3"":35}";1142.0;16;['5570_poke', '6026_fight', '5876_creep up on'];5876_creep up on
16;2024-10-09;01:09:46;35;2;right;"{""vid1"":36,""vid2"":36,""vid3"":36}";1158.39;16;['5528_hug', '1104_tickle', '5905_encircle'];5905_encircle
16;2024-10-09;01:09:46;36;8;left;"{""vid1"":37,""vid2"":74,""vid3"":37}";1191.413;16;['5876_creep up on', '6172_hit', '5568_push'];5876_creep up on
16;2024-10-09;01:09:46;37;15;middle;"{""vid1"":76,""vid2"":76,""vid3"":76}";1214.214;16;['6239_pull', '5901_huddle with', '4788_capture'];5901_huddle with
16;2024-10-09;01:09:46;38;27;left;"{""vid1"":39,""vid2"":39,""vid3"":39}";1242.602;16;['4806_flirt with', '4926_lead', '5790_escape'];4806_flirt with
16;2024-10-09;01:09:46;39;7;right;"{""vid1"":40,""vid2"":40,""vid3"":40}";1276.779;16;['5790_escape', '1051_herd', '4806_flirt with'];4806_flirt with
17;2024-10-09;01:33:13;0;26;left;"{""vid1"":1,""vid2"":1,""vid3"":1}";27.168;17;['5471_ignore', '4806_flirt with', '6013_talk to'];5471_ignore
16;2024-10-09;01:09:46;40;19;left;"{""vid1"":123,""vid2"":82,""vid3"":41}";1343.897;16;['6239_pull', '6013_talk to', '1051_herd'];6239_pull
17;2024-10-09;01:33:13;1;23;right;"{""vid1"":2,""vid2"":2,""vid3"":2}";51.738;17;['5788_examine', '5905_encircle', '1167_kiss'];1167_kiss
16;2024-10-09;01:09:46;41;30;right;"{""vid1"":42,""vid2"":42,""vid3"":42}";1360.732;16;['5528_hug', '6013_talk to', '5905_encircle'];5905_encircle
16;2024-10-09;01:09:46;42;20;left;"{""vid1"":43,""vid2"":43,""vid3"":43}";1383.901;16;['6172_hit', '6058_leave', '5866_follow'];6172_hit
17;2024-10-09;01:33:13;2;13;right;"{""vid1"":6,""vid2"":6,""vid3"":3}";91.513;17;['4806_flirt with', '5568_push', '5905_encircle'];5905_encircle
16;2024-10-09;01:09:46;43;10;right;"{""vid1"":44,""vid2"":44,""vid3"":44}";1411.908;16;['6300_accompany', '5471_ignore', '6172_hit'];6172_hit
17;2024-10-09;01:33:13;3;30;right;"{""vid1"":4,""vid2"":4,""vid3"":4}";114.82;17;['4788_capture', '5096_approach', '4789_bother'];4789_bother
16;2024-10-09;01:09:46;44;1;middle;"{""vid1"":90,""vid2"":45,""vid3"":45}";1434.465;16;['5570_poke', '5096_approach', '1167_kiss'];5096_approach
17;2024-10-09;01:33:13;4;2;middle;"{""vid1"":5,""vid2"":5,""vid3"":5}";152.998;17;['4793_avoid', '6026_fight', '6300_accompany'];6026_fight
17;2024-10-09;01:33:13;5;41;left;"{""vid1"":6,""vid2"":6,""vid3"":6}";223.766;17;['6239_pull', '5866_follow', '1167_kiss'];6239_pull
17;2024-10-09;01:33:13;6;22;middle;"{""vid1"":7,""vid2"":7,""vid3"":7}";250.088;17;['6172_hit', '5901_huddle with', '6026_fight'];5901_huddle with
17;2024-10-09;01:33:13;7;5;middle;"{""vid1"":8,""vid2"":8,""vid3"":8}";273.697;17;['5096_approach', '1121_scratch', '5788_examine'];1121_scratch
17;2024-10-09;01:33:13;8;42;middle;"{""vid1"":9,""vid2"":9,""vid3"":9}";298.56;17;['4806_flirt with', '4788_capture', '5876_creep up on'];4788_capture
17;2024-10-09;01:33:13;9;20;right;"{""vid1"":10,""vid2"":10,""vid3"":10}";317.563;17;['5471_ignore', '1051_herd', '5528_hug'];5528_hug
17;2024-10-09;01:33:13;10;6;right;"{""vid1"":22,""vid2"":11,""vid3"":11}";339.627;17;['1104_tickle', '5570_poke', '5528_hug'];5528_hug
17;2024-10-09;01:33:13;11;44;right;"{""vid1"":12,""vid2"":12,""vid3"":12}";387.19;17;['4926_lead', '5096_approach', '5901_huddle with'];5901_huddle with
17;2024-10-09;01:33:13;12;38;right;"{""vid1"":13,""vid2"":13,""vid3"":13}";410.576;17;['4793_avoid', '4788_capture', '1104_tickle'];1104_tickle
17;2024-10-09;01:33:13;13;25;middle;"{""vid1"":14,""vid2"":14,""vid3"":14}";433.74;17;['5096_approach', '6026_fight', '5905_encircle'];6026_fight
17;2024-10-09;01:33:13;14;29;middle;"{""vid1"":15,""vid2"":15,""vid3"":15}";460.603;17;['6058_leave', '4793_avoid', '1051_herd'];4793_avoid
17;2024-10-09;01:33:13;15;33;left;"{""vid1"":16,""vid2"":16,""vid3"":16}";494.711;17;['4789_bother', '6172_hit', '1104_tickle'];4789_bother
17;2024-10-09;01:33:13;16;0;right;"{""vid1"":17,""vid2"":17,""vid3"":17}";541.344;17;['5790_escape', '5528_hug', '5866_follow'];5866_follow
17;2024-10-09;01:33:13;17;34;middle;"{""vid1"":18,""vid2"":18,""vid3"":18}";568.053;17;['6172_hit', '4788_capture', '4806_flirt with'];4788_capture
17;2024-10-09;01:33:13;18;35;right;"{""vid1"":19,""vid2"":19,""vid3"":19}";604.857;17;['5876_creep up on', '5905_encircle', '5901_huddle with'];5901_huddle with
17;2024-10-09;01:33:13;19;7;right;"{""vid1"":20,""vid2"":20,""vid3"":20}";629.017;17;['1167_kiss', '4806_flirt with', '1121_scratch'];1121_scratch
17;2024-10-09;01:33:13;20;36;right;"{""vid1"":21,""vid2"":21,""vid3"":21}";650.634;17;['5568_push', '5096_approach', '6026_fight'];6026_fight
17;2024-10-09;01:33:13;21;14;middle;"{""vid1"":22,""vid2"":22,""vid3"":22}";673.347;17;['4789_bother', '5568_push', '1104_tickle'];5568_push
17;2024-10-09;01:33:13;22;43;right;"{""vid1"":23,""vid2"":23,""vid3"":23}";696.445;17;['5866_follow', '5471_ignore', '6026_fight'];6026_fight
18;2024-10-09;01:48:21;0;22;middle;"{""vid1"":1,""vid2"":1,""vid3"":1}";26.841;18;['4806_flirt with', '5901_huddle with', '1167_kiss'];5901_huddle with
18;2024-10-09;01:48:21;1;39;middle;"{""vid1"":2,""vid2"":2,""vid3"":2}";49.363;18;['6300_accompany', '6058_leave', '5471_ignore'];6058_leave
18;2024-10-09;01:48:21;2;35;right;"{""vid1"":3,""vid2"":3,""vid3"":3}";68.776;18;['4926_lead', '6239_pull', '6026_fight'];6026_fight
18;2024-10-09;01:48:21;3;38;middle;"{""vid1"":4,""vid2"":4,""vid3"":4}";96.04;18;['6300_accompany', '6058_leave', '4793_avoid'];6058_leave
18;2024-10-09;01:48:21;4;15;left;"{""vid1"":5,""vid2"":5,""vid3"":5}";119.125;18;['1121_scratch', '1167_kiss', '5790_escape'];1121_scratch
19;2024-10-09;01:49:37;0;14;left;"{""vid1"":4,""vid2"":3,""vid3"":2}";38.464;19;['5528_hug', '5568_push', '1167_kiss'];5528_hug
18;2024-10-09;01:48:21;5;0;middle;"{""vid1"":6,""vid2"":6,""vid3"":6}";141.589;18;['1051_herd', '1121_scratch', '1104_tickle'];1121_scratch
19;2024-10-09;01:49:37;1;11;right;"{""vid1"":4,""vid2"":4,""vid3"":4}";62.962;19;['4861_throw', '5570_poke', '5568_push'];5568_push
18;2024-10-09;01:48:21;6;36;middle;"{""vid1"":7,""vid2"":7,""vid3"":7}";159.391;18;['4926_lead', '5528_hug', '1167_kiss'];5528_hug
18;2024-10-09;01:48:21;7;9;left;"{""vid1"":8,""vid2"":8,""vid3"":8}";173.608;18;['5528_hug', '6239_pull', '5096_approach'];5528_hug
18;2024-10-09;01:48:21;8;17;middle;"{""vid1"":9,""vid2"":9,""vid3"":9}";190.625;18;['4788_capture', '6058_leave', '5788_examine'];6058_leave
19;2024-10-09;01:49:37;2;39;middle;"{""vid1"":9,""vid2"":6,""vid3"":6}";102.853;19;['5568_push', '4861_throw', '1167_kiss'];4861_throw
19;2024-10-09;01:49:37;3;20;left;"{""vid1"":8,""vid2"":8,""vid3"":4}";138.493;19;['4788_capture', '6172_hit', '5901_huddle with'];4788_capture
17;2024-10-09;01:33:13;23;17;left;"{""vid1"":48,""vid2"":24,""vid3"":24}";1169.91;17;['6013_talk to', '5471_ignore', '4789_bother'];6013_talk to
18;2024-10-09;01:48:21;9;20;middle;"{""vid1"":10,""vid2"":10,""vid3"":20}";275.305;18;['6013_talk to', '4806_flirt with', '1167_kiss'];4806_flirt with
18;2024-10-09;01:48:21;10;30;left;"{""vid1"":11,""vid2"":11,""vid3"":11}";295.271;18;['5096_approach', '1167_kiss', '5568_push'];5096_approach
17;2024-10-09;01:33:13;24;12;middle;"{""vid1"":25,""vid2"":25,""vid3"":25}";1201.712;17;['5901_huddle with', '5905_encircle', '4789_bother'];5905_encircle
19;2024-10-09;01:49:37;4;5;left;"{""vid1"":20,""vid2"":10,""vid3"":10}";218.428;19;['1121_scratch', '5096_approach', '5471_ignore'];1121_scratch
18;2024-10-09;01:48:21;11;16;middle;"{""vid1"":24,""vid2"":12,""vid3"":12}";324.173;18;['5096_approach', '4926_lead', '5471_ignore'];4926_lead
18;2024-10-09;01:48:21;12;11;middle;"{""vid1"":13,""vid2"":13,""vid3"":13}";348.604;18;['5096_approach', '1051_herd', '5866_follow'];1051_herd
19;2024-10-09;01:49:37;5;38;middle;"{""vid1"":12,""vid2"":18,""vid3"":12}";273.331;19;['6026_fight', '4861_throw', '1104_tickle'];4861_throw
18;2024-10-09;01:48:21;13;25;middle;"{""vid1"":14,""vid2"":14,""vid3"":14}";370.075;18;['1104_tickle', '5471_ignore', '4926_lead'];5471_ignore
17;2024-10-09;01:33:13;25;16;right;"{""vid1"":26,""vid2"":26,""vid3"":26}";1278.551;17;['5471_ignore', '4806_flirt with', '5096_approach'];5096_approach
17;2024-10-09;01:33:13;26;28;right;"{""vid1"":27,""vid2"":27,""vid3"":27}";1301.74;17;['1051_herd', '5876_creep up on', '4788_capture'];4788_capture
18;2024-10-09;01:48:21;14;2;middle;"{""vid1"":15,""vid2"":15,""vid3"":15}";396.271;18;['1051_herd', '5866_follow', '1104_tickle'];5866_follow
19;2024-10-09;01:49:37;6;34;middle;"{""vid1"":7,""vid2"":7,""vid3"":7}";306.236;19;['6300_accompany', '4806_flirt with', '4861_throw'];4806_flirt with
19;2024-10-09;01:49:37;7;27;right;"{""vid1"":16,""vid2"":8,""vid3"":8}";329.604;19;['5570_poke', '5905_encircle', '4926_lead'];4926_lead
17;2024-10-09;01:33:13;27;32;middle;"{""vid1"":56,""vid2"":28,""vid3"":28}";1385.056;17;['6239_pull', '5528_hug', '4806_flirt with'];5528_hug
19;2024-10-09;01:49:37;8;36;left;"{""vid1"":27,""vid2"":27,""vid3"":18}";409.232;19;['5790_escape', '6026_fight', '6300_accompany'];5790_escape
18;2024-10-09;01:48:21;15;28;right;"{""vid1"":16,""vid2"":16,""vid3"":16}";504.203;18;['6026_fight', '5790_escape', '4861_throw'];4861_throw
17;2024-10-09;01:33:13;28;3;right;"{""vid1"":29,""vid2"":29,""vid3"":29}";1411.353;17;['6013_talk to', '4793_avoid', '1121_scratch'];1121_scratch
19;2024-10-09;01:49:37;9;23;left;"{""vid1"":10,""vid2"":10,""vid3"":10}";424.315;19;['5568_push', '5570_poke', '1121_scratch'];5568_push
17;2024-10-09;01:33:13;29;19;right;"{""vid1"":30,""vid2"":30,""vid3"":30}";1443.676;17;['5096_approach', '6300_accompany', '4789_bother'];4789_bother
17;2024-10-09;01:33:13;30;27;left;"{""vid1"":31,""vid2"":31,""vid3"":31}";1458.24;17;['5570_poke', '4861_throw', '6239_pull'];5570_poke
17;2024-10-09;01:33:13;31;8;middle;"{""vid1"":32,""vid2"":32,""vid3"":32}";1486.444;17;['5905_encircle', '6013_talk to', '5471_ignore'];6013_talk to
18;2024-10-09;01:48:21;16;29;middle;"{""vid1"":17,""vid2"":34,""vid3"":17}";589.186;18;['4788_capture', '5788_examine', '6013_talk to'];5788_examine
19;2024-10-09;01:49:37;10;24;middle;"{""vid1"":33,""vid2"":33,""vid3"":22}";496.286;19;['6026_fight', '5790_escape', '1104_tickle'];5790_escape
17;2024-10-09;01:33:13;32;10;left;"{""vid1"":33,""vid2"":33,""vid3"":33}";1509.68;17;['4788_capture', '1051_herd', '5096_approach'];4788_capture
19;2024-10-09;01:49:37;11;13;middle;"{""vid1"":12,""vid2"":12,""vid3"":12}";519.762;19;['5876_creep up on', '4861_throw', '4793_avoid'];4861_throw
17;2024-10-09;01:33:13;33;24;right;"{""vid1"":34,""vid2"":34,""vid3"":34}";1529.46;17;['5570_poke', '6013_talk to', '4926_lead'];4926_lead
18;2024-10-09;01:48:21;17;41;left;"{""vid1"":18,""vid2"":18,""vid3"":18}";649.92;18;['6172_hit', '5788_examine', '5905_encircle'];6172_hit
18;2024-10-09;01:48:21;18;14;left;"{""vid1"":19,""vid2"":19,""vid3"":19}";669.739;18;['6026_fight', '5905_encircle', '6239_pull'];6026_fight
17;2024-10-09;01:33:13;34;40;left;"{""vid1"":35,""vid2"":35,""vid3"":35}";1579.996;17;['5905_encircle', '6058_leave', '6172_hit'];5905_encircle
19;2024-10-09;01:49:37;12;43;right;"{""vid1"":39,""vid2"":39,""vid3"":39}";594.04;19;['1167_kiss', '4789_bother', '5905_encircle'];5905_encircle
18;2024-10-09;01:48:21;19;24;middle;"{""vid1"":20,""vid2"":20,""vid3"":20}";694.434;18;['5471_ignore', '5788_examine', '1167_kiss'];5788_examine
17;2024-10-09;01:33:13;35;21;right;"{""vid1"":36,""vid2"":36,""vid3"":36}";1606.058;17;['1104_tickle', '5788_examine', '5905_encircle'];5905_encircle
19;2024-10-09;01:49:37;13;15;right;"{""vid1"":14,""vid2"":28,""vid3"":14}";621.922;19;['5568_push', '6026_fight', '6058_leave'];6058_leave
18;2024-10-09;01:48:21;20;37;middle;"{""vid1"":21,""vid2"":21,""vid3"":105}";721.45;18;['5905_encircle', '5790_escape', '5901_huddle with'];5790_escape
17;2024-10-09;01:33:13;36;37;left;"{""vid1"":37,""vid2"":37,""vid3"":37}";1646.255;17;['4789_bother', '4806_flirt with', '6172_hit'];4789_bother
19;2024-10-09;01:49:37;14;35;middle;"{""vid1"":30,""vid2"":30,""vid3"":15}";646.944;19;['4861_throw', '1121_scratch', '5876_creep up on'];1121_scratch
18;2024-10-09;01:48:21;21;6;middle;"{""vid1"":22,""vid2"":22,""vid3"":44}";745.901;18;['4788_capture', '4806_flirt with', '5790_escape'];4806_flirt with
19;2024-10-09;01:49:37;15;32;left;"{""vid1"":32,""vid2"":16,""vid3"":16}";682.208;19;['5790_escape', '1121_scratch', '5788_examine'];5790_escape
17;2024-10-09;01:33:13;37;39;right;"{""vid1"":38,""vid2"":38,""vid3"":38}";1685.581;17;['4861_throw', '5471_ignore', '6300_accompany'];6300_accompany
18;2024-10-09;01:48:21;22;23;middle;"{""vid1"":23,""vid2"":69,""vid3"":46}";792.367;18;['5866_follow', '4861_throw', '5788_examine'];4861_throw
17;2024-10-09;01:33:13;38;1;middle;"{""vid1"":39,""vid2"":39,""vid3"":39}";1704.494;17;['5528_hug', '4926_lead', '5790_escape'];4926_lead
18;2024-10-09;01:48:21;23;27;left;"{""vid1"":24,""vid2"":24,""vid3"":24}";813.5;18;['5866_follow', '6058_leave', '1051_herd'];5866_follow
17;2024-10-09;01:33:13;39;11;middle;"{""vid1"":40,""vid2"":40,""vid3"":40}";1721.322;17;['1051_herd', '5570_poke', '6239_pull'];5570_poke
18;2024-10-09;01:48:21;24;7;right;"{""vid1"":25,""vid2"":25,""vid3"":25}";826.154;18;['5528_hug', '1167_kiss', '6239_pull'];6239_pull
18;2024-10-09;01:48:21;25;19;left;"{""vid1"":26,""vid2"":26,""vid3"":26}";841.983;18;['5570_poke', '5790_escape', '5568_push'];5570_poke
17;2024-10-09;01:33:13;40;9;middle;"{""vid1"":41,""vid2"":41,""vid3"":41}";1755.273;17;['5568_push', '6058_leave', '5790_escape'];6058_leave
18;2024-10-09;01:48:21;26;42;right;"{""vid1"":27,""vid2"":27,""vid3"":27}";866.449;18;['4793_avoid', '4788_capture', '6300_accompany'];6300_accompany
17;2024-10-09;01:33:13;41;4;left;"{""vid1"":42,""vid2"":42,""vid3"":42}";1780.411;17;['1167_kiss', '4788_capture', '5788_examine'];1167_kiss
19;2024-10-09;01:49:37;16;3;left;"{""vid1"":17,""vid2"":34,""vid3"":34}";789.472;19;['4806_flirt with', '6172_hit', '5570_poke'];4806_flirt with
18;2024-10-09;01:48:21;27;4;right;"{""vid1"":28,""vid2"":28,""vid3"":28}";885.787;18;['5901_huddle with', '4806_flirt with', '5905_encircle'];5905_encircle
18;2024-10-09;01:48:21;28;3;left;"{""vid1"":29,""vid2"":29,""vid3"":29}";904.149;18;['5905_encircle', '5528_hug', '1051_herd'];5905_encircle
17;2024-10-09;01:33:13;42;15;right;"{""vid1"":86,""vid2"":43,""vid3"":43}";1830.135;17;['6058_leave', '1167_kiss', '5471_ignore'];5471_ignore
18;2024-10-09;01:48:21;29;40;left;"{""vid1"":30,""vid2"":30,""vid3"":30}";927.865;18;['6239_pull', '6172_hit', '5570_poke'];6239_pull
19;2024-10-09;01:49:37;17;41;left;"{""vid1"":36,""vid2"":36,""vid3"":36}";846.044;19;['1104_tickle', '6300_accompany', '1051_herd'];1104_tickle
17;2024-10-09;01:33:13;43;31;left;"{""vid1"":44,""vid2"":44,""vid3"":44}";1853.006;17;['5866_follow', '1121_scratch', '6013_talk to'];5866_follow
19;2024-10-09;01:49:37;18;10;middle;"{""vid1"":19,""vid2"":19,""vid3"":19}";868.424;19;['1104_tickle', '4926_lead', '5866_follow'];4926_lead
17;2024-10-09;01:33:13;44;18;right;"{""vid1"":45,""vid2"":45,""vid3"":45}";1883.662;17;['1104_tickle', '5866_follow', '6058_leave'];6058_leave
18;2024-10-09;01:48:21;30;26;right;"{""vid1"":62,""vid2"":31,""vid3"":31}";1003.965;18;['5901_huddle with', '6172_hit', '5788_examine'];5788_examine
19;2024-10-09;01:49:37;19;4;middle;"{""vid1"":60,""vid2"":40,""vid3"":40}";925.666;19;['5866_follow', '4789_bother', '5876_creep up on'];4789_bother
18;2024-10-09;01:48:21;31;8;left;"{""vid1"":32,""vid2"":32,""vid3"":32}";1083.935;18;['1121_scratch', '6026_fight', '6239_pull'];1121_scratch
18;2024-10-09;01:48:21;32;44;right;"{""vid1"":33,""vid2"":33,""vid3"":33}";1104.812;18;['1167_kiss', '5528_hug', '6172_hit'];6172_hit
19;2024-10-09;01:49:37;20;0;left;"{""vid1"":42,""vid2"":42,""vid3"":21}";1012.12;19;['6058_leave', '6172_hit', '5528_hug'];6058_leave
19;2024-10-09;01:49:37;21;17;middle;"{""vid1"":22,""vid2"":22,""vid3"":22}";1029.686;19;['1121_scratch', '5096_approach', '5570_poke'];5096_approach
19;2024-10-09;01:49:37;22;8;right;"{""vid1"":23,""vid2"":23,""vid3"":23}";1056.66;19;['6172_hit', '1167_kiss', '6026_fight'];6026_fight
19;2024-10-09;01:49:37;23;16;middle;"{""vid1"":48,""vid2"":48,""vid3"":24}";1086.804;19;['6013_talk to', '4861_throw', '5905_encircle'];4861_throw
19;2024-10-09;01:49:37;24;33;middle;"{""vid1"":50,""vid2"":50,""vid3"":25}";1129.716;19;['1167_kiss', '4793_avoid', '5528_hug'];4793_avoid
19;2024-10-09;01:49:37;25;18;right;"{""vid1"":26,""vid2"":26,""vid3"":26}";1157.541;19;['4806_flirt with', '5790_escape', '1121_scratch'];1121_scratch
18;2024-10-09;01:48:21;33;33;middle;"{""vid1"":34,""vid2"":34,""vid3"":34}";1275.548;18;['6013_talk to', '4793_avoid', '5570_poke'];4793_avoid
19;2024-10-09;01:49:37;26;7;right;"{""vid1"":54,""vid2"":54,""vid3"":27}";1200.784;19;['5866_follow', '4793_avoid', '5901_huddle with'];5901_huddle with
18;2024-10-09;01:48:21;34;18;left;"{""vid1"":35,""vid2"":35,""vid3"":35}";1300.982;18;['5876_creep up on', '6026_fight', '4926_lead'];5876_creep up on
19;2024-10-09;01:49:37;27;25;middle;"{""vid1"":28,""vid2"":56,""vid3"":28}";1223.256;19;['5788_examine', '5528_hug', '5876_creep up on'];5528_hug
18;2024-10-09;01:48:21;35;13;right;"{""vid1"":36,""vid2"":36,""vid3"":36}";1341.816;18;['4926_lead', '5568_push', '5876_creep up on'];5876_creep up on
19;2024-10-09;01:49:37;28;44;right;"{""vid1"":58,""vid2"":58,""vid3"":58}";1270.861;19;['4788_capture', '6172_hit', '5788_examine'];5788_examine
18;2024-10-09;01:48:21;36;43;right;"{""vid1"":37,""vid2"":37,""vid3"":37}";1367.882;18;['5471_ignore', '5866_follow', '5876_creep up on'];5876_creep up on
19;2024-10-09;01:49:37;29;26;right;"{""vid1"":30,""vid2"":30,""vid3"":30}";1290.377;19;['4861_throw', '5876_creep up on', '6013_talk to'];6013_talk to
19;2024-10-09;01:49:37;30;12;right;"{""vid1"":31,""vid2"":31,""vid3"":31}";1303.513;19;['5570_poke', '5528_hug', '5866_follow'];5866_follow
18;2024-10-09;01:48:21;37;10;middle;"{""vid1"":38,""vid2"":38,""vid3"":38}";1399.615;18;['5568_push', '4789_bother', '4793_avoid'];4789_bother
